textbox_11.text,STUDY_ID,Word14,WordB,reading.stopped,list,corf,practice_trials.thisN,condition,trials.thisN,right_im,feedback.started,practice_loop.thisIndex,debrief2.stopped,reading.started,key_resp_3.keys,key_resp.rt,feedback.stopped,RelFreq,psychopyVersion,pause_before_memory_task.started,key_resp_18.rt,pause_before_memory_task.stopped,key_resp_3.duration,key_resp_5.duration,key_resp_24.rt,key_resp_6.keys,trial_2.stopped,key_resp.corr,key_resp_10.corr,pause_before_memory_task_2.stopped,Binomial,trials.thisRepN,trials.thisTrialN,key_resp_19.rt,left_im,PrimeType,key_resp_19.duration,demo_other_langs_2.started,trial.started,Prime,textbox_13.text,Sentence,audio_loop.thisTrialN,textbox.text,textbox_2.text,instructions_rotation.started,key_resp_20.keys,key_resp_8.keys,the_end.stopped,trials_2.thisRepN,corj,angle,OS,same,counterbalance,GenPref,Questions,mirrored_key,textbox_10.text,practice_loop.thisTrialN,trials_2.thisN,key_resp_7.corr,key_resp_23.keys,wait_before_starting.stopped,Word5,Word4,key_resp_18.keys,Intructions_2.started,textbox_9.text,practice_trials.thisRepN,debrief2.started,audio_loop.thisN,practice_trials.ran,PROLIFIC_PID,the_end.started,consent_resp_2.rt,consent_resp_2.keys,List,Word16,audio_loop.ran,CorrAns,practice_loop.thisN,demo_age_2.started,key_resp_21.keys,type,trial_2.started,trial_no_audio.started,practice_trials.thisIndex,trials.thisIndex,key_resp_23.rt,Word7,Word0,trials.ran,__session,Word8,trial.stopped,rightori,fixation_cross.started,debrief1.started,demo_age_2.stopped,key_resp_22.rt,Word6,Word10,demographic_questions_2.started,WordA,practice_trials.thisTrialN,feedback_2.started,Word3,key_resp_10.rt,prime_freq,counterbalance_setup.started,feedback_no_audio.started,demo_place_of_birth_2.started,comprehension.started,debrief1.stopped,Instructions_4.started,Word9,Answer,practice_loop.thisRepN,Word15,key_resp_8.rt,demographic_questions_2.stopped,key_resp_4.corr,pause_before_memory_task_2.started,Condition,__datetime,feedback_no_audio.stopped,date,Word13,Word1,demo_native_lang_2.started,SESSION_ID,trials_2.ran,target_freq,demo_native_lang_2.stopped,key_resp_7.keys,audio,key_resp_19.keys,Word11,practice_loop.ran,Word12,key_resp_4.rt,not_mirrored_key,instr_key_1.keys,leftori,comprehension.stopped,key_resp_21.rt,participant,instr_key_1.rt,instructions_rotation.stopped,key_resp_4.keys,feedback_2.stopped,expName,key_resp_5.rt,demo_other_langs_2.stopped,consent_2.stopped,demo_place_of_birth_2.stopped,key_resp_7.rt,key_resp_24.keys,fixation_cross.stopped,session,Intructions_1.stopped,Instructions_3.stopped,Item,key_resp_22.keys,Word2,instructions_final.started,SentenceType,trials_2.thisIndex,frameRate,audio_loop.thisRepN,__participant,key_resp_6.rt,key_resp.keys,counterbalance_setup.stopped,instructions_final.stopped,key_resp_5.keys,audio_loop.thisIndex,trial_no_audio.stopped,key_resp_3.rt,key_resp_20.rt,wait_before_starting.started,trials_2.thisTrialN,key_resp_10.keys,Instructions_4.stopped,consent_2.started,__experimentName,Intructions_2.stopped,Intructions_1.started,Instructions_3.started
﻿,67ec910001675b3ed2ca68d9,,,,,,,,,,,,,,,,,,2023.2.1,,,,,,,,,,,,,,,,,,,,,,,,,,,,,,,,,,Win32,,1,,,f,,,,,,,,,,,,,,,,67ea50cb1cc5e59473a47d51,,,,,,,,,,,moving word,,,,,,,,,001,,,,,,,,,,,,,,,,,0.00020000000298026066,,,,,,,,,,,,,,,2025-04-01_21h50.12.280,,2025-04-01_21h50.29.362,,,,67ec97c94fdeb4da1eff7fd3,,,,,,,,,,,j,,,,,67ea50cb1cc5e59473a47d51,,,,,NoisyChannelLearning,,,,,,,,001,,,,,,,,,59.88023952095548,,PARTICIPANT,,,0.0004000000059605213,,,,,,,,,,,,NoisyChannelLearning_PilotExp2,,,
﻿na,67ec910001675b3ed2ca68d9,,,,,,,,,,,,,,,,,,2023.2.1,,3.6915999999940396,,,,,,,,,,,,,7.467499999999998,,,,16.146099999994043,,,us,,,,,,return,,,,,,Win32,,,,,,english,,,,,,,,space,,27,,,,,67ea50cb1cc5e59473a47d51,,1.7313000000119203,space,,,,,,5.524400000005961,return,moving word,,,,,,,,,001,,,,,,13.028099999994044,1.9606999999880799,,,1.8065999999940416,,,,,,,,,21.298200000002986,,,,,,,,,5.524200000002981,,,,2025-04-01_21h50.12.280,,2025-04-01_21h50.29.362,,,13.028400000005963,67ec97c94fdeb4da1eff7fd3,,,16.145900000005966,,,return,,,,,,f,,,5.127799999997023,67ea50cb1cc5e59473a47d51,46.06740000000597,,,,NoisyChannelLearning,,21.297900000005967,1.8064000000059615,23.282000000000004,,,,001,69.3645,,,return,,,,,59.88023952095548,,PARTICIPANT,,,,,,,,,3.0902999999970255,,,,,0.0024000000059629656,NoisyChannelLearning_PilotExp2,,23.282400000005964,
﻿,67ec910001675b3ed2ca68d9,,,,,,,,,,,,,,,,,,2023.2.1,,,,,,,,,,,,,,,,,,,,,,,,,,,,,,,,,,Win32,,,,,,,,,,,,,,,69.36470000000298,,,,,,67ea50cb1cc5e59473a47d51,,,,,,,,,,,moving word,,,,,,,,,001,,,,,,,,,,,,,,,,,,,,,,,,,,,,,,,,2025-04-01_21h50.12.280,,2025-04-01_21h50.29.362,,,,67ec97c94fdeb4da1eff7fd3,,,,,,,,,,,,,,,,67ea50cb1cc5e59473a47d51,,,,,NoisyChannelLearning,,,,,,,,001,,,,,,,,,59.88023952095548,,PARTICIPANT,,,,,,,,,,,,,,,NoisyChannelLearning_PilotExp2,117.36590000000596,,
﻿,67ec910001675b3ed2ca68d9,,,,,,,,,,,,,,,,,,2023.2.1,,,,,,,,,,,,,,,,,,,,,,,,,,,117.366,,f,,,,,Win32,,,,,,,,,,,,,,,,,,,,,67ea50cb1cc5e59473a47d51,,,,,,,,,,,moving word,,,,,,,,,001,,,,,,,,,,,,,,,,,,,,,,,,,,,1.7280000000000086,,,,,2025-04-01_21h50.12.280,,2025-04-01_21h50.29.362,,,,67ec97c94fdeb4da1eff7fd3,,,,,,,,,,,,,,,,67ea50cb1cc5e59473a47d51,,119.11629999999703,,,NoisyChannelLearning,,,,,,,,001,,,,,,,,,59.88023952095548,,PARTICIPANT,,,,,,,,,,,,,,,NoisyChannelLearning_PilotExp2,,,
﻿,67ec910001675b3ed2ca68d9,,,,,j,,,,F.png,,,,,,,,,2023.2.1,,,,,,,,,,1,,,,,,F.png,,,,,,,,,,,,,,,0,f,45,Win32,n,,,,,,,0,,,119.36629999999703,,,,,,,,,,67ea50cb1cc5e59473a47d51,,,,,,,j,,,,moving word,,119.36640000000595,,,,,,,001,,,45,,,,,,,,,,,,4.584000000000003,,,124.018700000003,,,,,,,,,,,,,,2025-04-01_21h50.12.280,125.018700000003,2025-04-01_21h50.29.362,,,,67ec97c94fdeb4da1eff7fd3,1,,,,,,,,,,,,0,,,67ea50cb1cc5e59473a47d51,,,,,NoisyChannelLearning,,,,,,,,001,,,,,,,,2,59.88023952095548,,PARTICIPANT,,,,,,,124.01840000000597,,,119.12150000000001,0,j,,,NoisyChannelLearning_PilotExp2,,,
﻿,67ec910001675b3ed2ca68d9,,,,,f,,,,FR.png,,,,,,,,,2023.2.1,,,,,,,,,,1,,,,,,F.png,,,,,,,,,,,,,,,0,j,0,Win32,y,,,,,,,1,,,125.26840000000597,,,,,,,,,,67ea50cb1cc5e59473a47d51,,,,,,,f,,,,moving word,,125.26840000000597,,,,,,,001,,,0,,,,,,,,,,,,1.4528999999910752,,,126.75240000000598,,,,,,,,,,,,,,2025-04-01_21h50.12.280,127.75259999999405,2025-04-01_21h50.29.362,,,,67ec97c94fdeb4da1eff7fd3,1,,,,,,,,,,,,0,,,67ea50cb1cc5e59473a47d51,,,,,NoisyChannelLearning,,,,,,,,001,,,,,,,,1,59.88023952095548,,PARTICIPANT,,,,,,,126.75229999999702,,,125.01929999999702,1,f,,,NoisyChannelLearning_PilotExp2,,,
﻿,67ec910001675b3ed2ca68d9,,,,,j,,,,F.png,,,,,,,,,2023.2.1,,,,,,,,,,1,,,,,,F.png,,,,,,,,,,,,,,,0,f,0,Win32,n,,,,,,,2,,,128.00279999999702,,,,,,,,,,67ea50cb1cc5e59473a47d51,,,,,,,j,,,,moving word,,128.00279999999702,,,,,,,001,,,0,,,,,,,,,,,,1.0660000000000025,,,129.103400000006,,,,,,,,,,,,,,2025-04-01_21h50.12.280,130.1035,2025-04-01_21h50.29.362,,,,67ec97c94fdeb4da1eff7fd3,1,,,,,,,,,,,,0,,,67ea50cb1cc5e59473a47d51,,,,,NoisyChannelLearning,,,,,,,,001,,,,,,,,0,59.88023952095548,,PARTICIPANT,,,,,,,129.103400000006,,,127.753,2,j,,,NoisyChannelLearning_PilotExp2,,,
﻿,67ec910001675b3ed2ca68d9,,,,,,,,,,,,,,,,,,2023.2.1,,,,,,,,,,,,,,,,,,,,,,,,,,,,,,,,,,Win32,,,,,,,,,,,,,,,,,,,,,67ea50cb1cc5e59473a47d51,,,,,,,,,,,moving word,,,,,,,,,001,,,,,,,,,,,,,,,,,,,,,,,,,,,,,,,,2025-04-01_21h50.12.280,,2025-04-01_21h50.29.362,,,,67ec97c94fdeb4da1eff7fd3,,,,,,,,,,,,,,,,67ea50cb1cc5e59473a47d51,,,,,NoisyChannelLearning,,,,,,,,001,,147.226799999997,,,,,,,59.88023952095548,,PARTICIPANT,,,,,,,,,,,,,,,NoisyChannelLearning_PilotExp2,,,130.10379999999702
﻿,67ec910001675b3ed2ca68d9,,,,,,,,,,,,,,,,,,2023.2.1,,,,,,,,,,,,,,,,,,,,,,,,,,,,,,,,,,Win32,,,,,,,,,,,,,,,,,,,,,67ea50cb1cc5e59473a47d51,,,,,,,,,,,moving word,,,,,,,,,001,,,,,,,,,,,,,,,,,,,,,,147.22700000000003,,,,,,,,,,2025-04-01_21h50.12.280,,2025-04-01_21h50.29.362,,,,67ec97c94fdeb4da1eff7fd3,,,,,,,,,,,,,,,,67ea50cb1cc5e59473a47d51,,,,,NoisyChannelLearning,,,,,,,,001,,,,,,,,,59.88023952095548,,PARTICIPANT,,,,,,,,,,,,,153.71249999999998,,NoisyChannelLearning_PilotExp2,,,
﻿,67ec910001675b3ed2ca68d9,,,,,j,0,,,F.png,,,,,,,,,2023.2.1,,,,,,,return,160.66540000000595,,,155.07970000000296,,,,,F.png,,,,,,,,,,,,,,,,f,45,Win32,n,,,,,,,,1,,155.32959999999406,,,,,,0,,,1,67ea50cb1cc5e59473a47d51,,,,,,,j,,,,moving word,155.32990000000598,,2,,,,,,001,,,45,,,,,,,,,0,160.6655,,,,,,,,,,,,,,,,,153.71509999999404,,2025-04-01_21h50.12.280,,2025-04-01_21h50.29.362,,,,67ec97c94fdeb4da1eff7fd3,,,,j,,,,,,,,,0,,,67ea50cb1cc5e59473a47d51,,,,161.16520000000298,NoisyChannelLearning,,,,,5.260000000000019,,,001,,,,,,,,,59.88023952095548,,PARTICIPANT,1.343299999997015,,,,,,,,,155.08129999999704,,,,,NoisyChannelLearning_PilotExp2,,,
﻿,67ec910001675b3ed2ca68d9,,,,,f,1,,,FR.png,,,,,,,,,2023.2.1,,,,,,,,162.76590000000596,,,,,,,,F.png,,,,,,,,,,,,,,,,j,0,Win32,y,,,,,,,,1,,161.41520000000298,,,,,,0,,,1,67ea50cb1cc5e59473a47d51,,,,,,,f,,,,moving word,161.41520000000298,,1,,,,,,001,,,0,,,,,,,,,1,162.76590000000596,,,,,,,,,,,,,,,,,,,2025-04-01_21h50.12.280,,2025-04-01_21h50.29.362,,,,67ec97c94fdeb4da1eff7fd3,,,,f,,,,,,,,,0,,,67ea50cb1cc5e59473a47d51,,,,163.26600000000002,NoisyChannelLearning,,,,,1.3160000000000025,,,001,,,,,,,,,59.88023952095548,,PARTICIPANT,,,,,,,,,,161.16559999999407,,,,,NoisyChannelLearning_PilotExp2,,,
﻿,67ec910001675b3ed2ca68d9,,,173.33659999999406,practice,,,practice,,,,0,,164.26679999999703,"[""space"",""space"",""space"",""space"",""space"",""space"",""space"",""space"",""space"",""space"",""space"",""space""]",,,,2023.2.1,,,,"[null,null,null,null,null,null,null,null,null,null,null,null]",,,,,,,,abashed and sorry,,,,,Prime (unrelated),,,,,,+ The woman was sorry and abashed when she realized her mistake.,,,,,,,,,,,Win32,,,,Did the woman realize her mistake?,,,0,,,,,0.3824999999999932,0.41640000000597865,,,,,,,,67ea50cb1cc5e59473a47d51,,,,,,,,0,,,moving word,,,,,,0.48290000000596933,4.398499999999984,,001,0.2992000000029691,,,163.26640000000594,,,,0.3824999999999932,0.3162999999970282,,,,,0.4160999999940316,,,,,,173.33690000000598,,,0.3323999999910825,,0,,,,0,,,2025-04-01_21h50.12.280,,2025-04-01_21h50.29.362,,0.6660999999940316,,67ec97c94fdeb4da1eff7fd3,,,,,audio/practice_sentence1.wav,,0.2990000000000066,1,,3.9870999999940295,,,,177.354700000003,,67ea50cb1cc5e59473a47d51,,,y,,NoisyChannelLearning,,,,,,,164.2665,001,,,3,,0.4825000000000159,,Sentence (nonalphabetical),,59.88023952095548,,PARTICIPANT,,,,,,,,"[4.377999999999986,5.060200000002965,5.561600000008923,5.999800000011902,6.438700000002967,6.832400000005947,7.237900000005965,7.727700000002983,8.053100000008925,8.400900000005947,8.729100000008941,9.053200000002988]",,,,,,,NoisyChannelLearning_PilotExp2,,,
﻿,67ec910001675b3ed2ca68d9,,,,,j,0,,,F.png,,,,,,,,,2023.2.1,,,,,,,return,180.62259999999407,,,178.72159999999405,,,,,F.png,,,,,,,,,,,,,,,,f,0,Win32,n,,,,,,,,1,,178.971700000003,,,,,,0,,,1,67ea50cb1cc5e59473a47d51,,,,,,,j,,,,moving word,178.971700000003,,0,,,,,,001,,,0,,,,,,,,,0,180.62270000000296,,,,,,,,,,,,,,,,,177.35529999999704,,2025-04-01_21h50.12.280,,2025-04-01_21h50.29.362,,,,67ec97c94fdeb4da1eff7fd3,,,,j,,,,,,,,,0,,,67ea50cb1cc5e59473a47d51,,,,181.1225,NoisyChannelLearning,,,,,1.61009999999402,,,001,,,,,,,,,59.88023952095548,,PARTICIPANT,1.3445000000000107,,,,,,,,,178.72329999999704,,,,,NoisyChannelLearning_PilotExp2,,,
﻿,67ec910001675b3ed2ca68d9,,,,,j,1,,,F.png,,,,,,,,,2023.2.1,,,,,,,,183.00670000000298,,,,,,,,F.png,,,,,,,,,,,,,,,,f,45,Win32,n,,,,,,,,1,,181.37259999999407,,,,,,0,,,1,67ea50cb1cc5e59473a47d51,,,,,,,j,,,,moving word,181.37259999999407,,2,,,,,,001,,,45,,,,,,,,,1,183.00679999999704,,,,,,,,,,,,,,,,,,,2025-04-01_21h50.12.280,,2025-04-01_21h50.29.362,,,,67ec97c94fdeb4da1eff7fd3,,,,j,,,,,,,,,0,,,67ea50cb1cc5e59473a47d51,,,,183.50670000000298,NoisyChannelLearning,,,,,1.6132999999970252,,,001,,,,,,,,,59.88023952095548,,PARTICIPANT,,,,,,,,,,181.12290000000598,,,,,NoisyChannelLearning_PilotExp2,,,
﻿,67ec910001675b3ed2ca68d9,,,,,f,2,,,FR.png,,,,,,,,,2023.2.1,,,,,,,,184.52390000000594,,,,,,,,F.png,,,,,,,,,,,,,,,,j,0,Win32,y,,,,,,,,1,,183.75690000000594,,,,,,0,,,1,67ea50cb1cc5e59473a47d51,,,,,,,f,,,,moving word,183.75690000000594,,1,,,,,,001,,,0,,,,,,,,,2,184.52390000000594,,,,,,,,,,,,,,,,,,,2025-04-01_21h50.12.280,,2025-04-01_21h50.29.362,,,,67ec97c94fdeb4da1eff7fd3,,,,f,,,,,,,,,0,,,67ea50cb1cc5e59473a47d51,,,,185.024,NoisyChannelLearning,,,,,0.7330000000000041,,,001,,,,,,,,,59.88023952095548,,PARTICIPANT,,,,,,,,,,183.50709999999407,,,,,NoisyChannelLearning_PilotExp2,,,
﻿,67ec910001675b3ed2ca68d9,0.3995000000000175,,194.461,practice,,,practice,,,,2,,186.02440000000598,"[""space"",""space"",""space"",""space"",""space"",""space"",""space"",""space"",""space"",""space"",""space"",""space"",""space"",""space"",""space"",""space""]",,,,2023.2.1,,,,"[null,null,null,null,null,null,null,null,null,null,null,null,null,null,null,null]",,,,,,,,address and name,,,,,Prime (unrelated),,,,,,+ Mary needed the landlord's address and name before she could send her first rent check.,,,,,,,,,,,Win32,,,,Did the speaker wake up late?,,,1,,,,,0.4657000000029825,0.44929999999700954,,,,,,,,67ea50cb1cc5e59473a47d51,,,,,,,,1,,,moving word,,,,,,0.39939999999106135,1.849599999994041,,001,0.3994000000059543,,,185.02409999999406,,,,0.4162999999970225,0.3990000000000009,,,,,0.3994999999999891,,,,,,194.46109999999402,,,0.39959999999402385,,0,0.3663000000119325,,,0,,,2025-04-01_21h50.12.280,,2025-04-01_21h50.29.362,0.29949999999999477,0.7495999999940466,,67ec97c94fdeb4da1eff7fd3,,,,,audio/practice_sentence3.wav,,0.3828999999910536,1,0.3664000000059673,4.950099999994052,,,,199.42940000000596,,67ea50cb1cc5e59473a47d51,,,n,,NoisyChannelLearning,,,,,,,186.02440000000598,001,,,7,,0.4327999999970302,,Sentence (alphabetical),,59.88023952095548,,PARTICIPANT,,,,,,,,"[1.8379999999999939,2.599299999997015,3.053100000008925,3.4666000000089525,3.9359000000059723,4.417000000000002,4.855600000008934,5.2757999999970195,5.689900000005963,6.0992000000029805,6.515500000000003,6.925000000000011,7.306400000005965,7.624799999997009,8.033900000005957,8.421100000008948]",,,,,,,NoisyChannelLearning_PilotExp2,,,
﻿,67ec910001675b3ed2ca68d9,,,,,j,0,,,F.png,,,,,,,,,2023.2.1,,,,,,,return,201.71359999999402,,,200.29649999999998,,,,,F.png,,,,,,,,,,,,,,,,f,45,Win32,n,,,,,,,,1,,200.54640000000597,,,,,,0,,,1,67ea50cb1cc5e59473a47d51,,,,,,,j,,,,moving word,200.54640000000597,,2,,,,,,001,,,45,,,,,,,,,0,201.71370000000297,,,,,,,,,,,,,,,,,199.42979999999704,,2025-04-01_21h50.12.280,,2025-04-01_21h50.29.362,,,,67ec97c94fdeb4da1eff7fd3,,,,j,,,,,,,,,0,,,67ea50cb1cc5e59473a47d51,,,,202.21359999999402,NoisyChannelLearning,,,,,1.1282999999970116,,,001,,,,,,,,,59.88023952095548,,PARTICIPANT,0.8472999999970341,,,,,,,,,200.298,,,,,NoisyChannelLearning_PilotExp2,,,
﻿,67ec910001675b3ed2ca68d9,,,,,f,1,,,FR.png,,,,,,,,,2023.2.1,,,,,,,,203.53090000000594,,,,,,,,F.png,,,,,,,,,,,,,,,,j,0,Win32,y,,,,,,,,1,,202.463900000006,,,,,,0,,,1,67ea50cb1cc5e59473a47d51,,,,,,,f,,,,moving word,202.463900000006,,1,,,,,,001,,,0,,,,,,,,,1,203.531,,,,,,,,,,,,,,,,,,,2025-04-01_21h50.12.280,,2025-04-01_21h50.29.362,,,,67ec97c94fdeb4da1eff7fd3,,,,f,,,,,,,,,0,,,67ea50cb1cc5e59473a47d51,,,,204.03129999999703,NoisyChannelLearning,,,,,1.0367999999970152,,,001,,,,,,,,,59.88023952095548,,PARTICIPANT,,,,,,,,,,202.214,,,,,NoisyChannelLearning_PilotExp2,,,
﻿,67ec910001675b3ed2ca68d9,,,,,j,2,,,F.png,,,,,,,,,2023.2.1,,,,,,,,205.44840000000596,,,,,,,,F.png,,,,,,,,,,,,,,,,f,0,Win32,n,,,,,,,,1,,204.28109999999407,,,,,,0,,,1,67ea50cb1cc5e59473a47d51,,,,,,,j,,,,moving word,204.28120000000297,,0,,,,,,001,,,0,,,,,,,,,2,205.44850000000002,,,,,,,,,,,,,,,,,,,2025-04-01_21h50.12.280,,2025-04-01_21h50.29.362,,,,67ec97c94fdeb4da1eff7fd3,,,,j,,,,,,,,,0,,,67ea50cb1cc5e59473a47d51,,,,205.94850000000002,NoisyChannelLearning,,,,,1.1307999999970093,,,001,,,,,,,,,59.88023952095548,,PARTICIPANT,,,,,,,,,,204.03159999999406,,,,,NoisyChannelLearning_PilotExp2,,,
﻿,67ec910001675b3ed2ca68d9,0.38230000001192366,,214.50190000000595,practice,,,practice,,,,1,,206.94890000000595,"[""space"",""space"",""space"",""space"",""space"",""space"",""space"",""space"",""space"",""space"",""space"",""space"",""space"",""space"",""space"",""space""]",,,,2023.2.1,,,,"[null,null,null,null,null,null,null,null,null,null,null,null,null,null,null,null]",,,,,,,,actresses and lumberjacks,,,,,Prime (unrelated),,,,,,+ The number of actresses and lumberjacks living in this neighborhood never ceases to surprise me.,,,,,,,,,,,Win32,,,,Did the number of waiters surprise the speaker?,,,2,,,,,0.36599999999998545,0.3661000000089416,,,,,,,,67ea50cb1cc5e59473a47d51,,,,,,,,2,,,moving word,,,,,,0.6153999999910411,1.3661999999880834,,001,0.3160000000000025,,,205.94850000000002,,,,0.2828999999910593,0.31609999999403726,,,,,0.41570000000297114,,,,,,214.50190000000595,,,0.316200000002965,,0,0.4327999999970302,,,0,,,2025-04-01_21h50.12.280,,2025-04-01_21h50.29.362,0.382900000005975,0.5329000000059523,,67ec97c94fdeb4da1eff7fd3,,,,,audio/practice_sentence2.wav,,0.29939999999106703,1,0.38279999999701886,4.901900000005952,,,,219.42009999999402,,67ea50cb1cc5e59473a47d51,,,n,,NoisyChannelLearning,,,,,,,206.94879999999705,001,,,5,,0.5169000000059611,,Sentence (alphabetical),,59.88023952095548,,PARTICIPANT,,,,,,,,"[1.34939999999105,1.9008999999910543,2.4422999999970045,2.87409999999403,3.2549999999999955,3.6310000000000002,3.9359999999999786,4.567999999999984,4.900999999999982,5.2315999999940175,5.565399999991058,5.889299999997007,6.284999999999997,6.690999999999974,7.093099999994024,7.539099999994022]",,,,,,,NoisyChannelLearning_PilotExp2,,,
﻿,67ec910001675b3ed2ca68d9,,,,,,,,,,,,,,,,,,2023.2.1,,,,,,,,,,,,,,,,,,,,,,,,,,,,,,,,,,Win32,,,,,,,,,,,,,,,,,,,,,67ea50cb1cc5e59473a47d51,,,,,,,,,,,moving word,,,,,,,,,001,,,,,,,,,,,,,,,,,,,,,,,,,,,,,,,,2025-04-01_21h50.12.280,,2025-04-01_21h50.29.362,,,,67ec97c94fdeb4da1eff7fd3,,,,,,,,,,,,,,,,67ea50cb1cc5e59473a47d51,,,,,NoisyChannelLearning,,,,,,,,001,,,,,,219.4205,,,59.88023952095548,,PARTICIPANT,,,,220.58740000000597,,,,,,,,,,,NoisyChannelLearning_PilotExp2,,,
﻿,67ec910001675b3ed2ca68d9,,,,,j,,,0,F.png,223.18859999999404,,,,,1.504799999997033,223.68850000000003,,2023.2.1,220.59640000000599,,221.371200000003,,,,,,1,,,,0,0,,F.png,,,,221.62140000000596,,,,,,,,,,,,f,0,Win32,n,,,,,,,,,,221.62109999999404,,,,,,,,,,67ea50cb1cc5e59473a47d51,,,,,,,j,,,,moving word,,,,4,,,,1,001,,223.18840000000597,0,,,,,,,,,,,,,,,,,,,,,,,,,,,,,2025-04-01_21h50.12.280,,2025-04-01_21h50.29.362,,,,67ec97c94fdeb4da1eff7fd3,,,,,,,,,,,,,0,,,67ea50cb1cc5e59473a47d51,,,,,NoisyChannelLearning,0.7567999999970141,,,,,,,001,,,,,,,,,59.88023952095548,,PARTICIPANT,,j,,,return,,,,,221.37409999999403,,,,,NoisyChannelLearning_PilotExp2,,,
﻿,67ec910001675b3ed2ca68d9,,,,,j,,,1,FR.png,225.15570000000298,,,,,1.1597000000029993,225.65579999999704,,2023.2.1,,,,,,,,,1,,,,0,1,,FR.png,,,,223.93859999999404,,,,,,,,,,,,f,0,Win32,n,,,,,,,,,,223.93840000000597,,,,,,,,,,67ea50cb1cc5e59473a47d51,,,,,,,j,,,,moving word,,,,28,,,,1,001,,225.15559999999402,0,,,,,,,,,,,,,,,,,,,,,,,,,,,,,2025-04-01_21h50.12.280,,2025-04-01_21h50.29.362,,,,67ec97c94fdeb4da1eff7fd3,,,,,,,,,,,,,0,,,67ea50cb1cc5e59473a47d51,,,,,NoisyChannelLearning,,,,,,,,001,,,,,,,,,59.88023952095548,,PARTICIPANT,,j,,,,,,,,223.68900000000002,,,,,NoisyChannelLearning_PilotExp2,,,
﻿,67ec910001675b3ed2ca68d9,,,,,f,,,2,FR.png,227.39009999999405,,,,,1.450799999997031,227.89,,2023.2.1,,,,,,,,,1,,,,0,2,,F.png,,,,225.90590000000594,,,,,,,,,,,,j,45,Win32,y,,,,,,,,,,225.90590000000594,,,,,,,,,,67ea50cb1cc5e59473a47d51,,,,,,,f,,,,moving word,,,,15,,,,1,001,,227.39,45,,,,,,,,,,,,,,,,,,,,,,,,,,,,,2025-04-01_21h50.12.280,,2025-04-01_21h50.29.362,,,,67ec97c94fdeb4da1eff7fd3,,,,,,,,,,,,,0,,,67ea50cb1cc5e59473a47d51,,,,,NoisyChannelLearning,,,,,,,,001,,,,,,,,,59.88023952095548,,PARTICIPANT,,f,,,,,,,,225.65609999999407,,,,,NoisyChannelLearning_PilotExp2,,,
﻿,67ec910001675b3ed2ca68d9,,NA,233.92559999999406,,,,,,,,,,228.89040000000597,"[""space"",""space"",""space"",""space"",""space"",""space"",""space"",""space"",""space"",""space"",""space""]",,,NA,2023.2.1,,,,"[null,null,null,null,null,null,null,null,null,null,null]",,,,,,,,NA,,,,,filler,,,,The old house was filled with memories of past years.,,"+ He jotted down notes in his notebook, deep in thought.",0,,,,,,,,,,Win32,,,NA,Did he jot down the notes on his computer?,,,,,,,,0.29959999999402953,0.3162000000029934,,,,,,0,,67ea50cb1cc5e59473a47d51,,,,0,,1,,,,,moving word,,,,,,0.38279999999701886,1.3660999999940486,,001,0.31590000000596774,,,227.890200000003,,,,0.28300000000001546,0.29940000000596,,NA,,,0.31610000000895866,,NA,,,,233.92570000000302,,,0.3162000000029366,n,,,,,0,,NA,2025-04-01_21h50.12.280,,2025-04-01_21h50.29.362,,0.46579999999701727,,67ec97c94fdeb4da1eff7fd3,,NA,,,audio/prime_filler/The_old_house_was_filled_with_memories_of_past_years.wav,,,,,1.6718999999910693,,,,235.60940000000596,,67ea50cb1cc5e59473a47d51,,,y,,NoisyChannelLearning,,,,,,,228.89040000000597,001,,,147,,0.49960000000893956,,filler,,59.88023952095548,0,PARTICIPANT,,,,,,50,,"[1.3466999999880898,1.83869999998808,2.3512999999970248,2.6805999999940298,3.017899999991073,3.3341999999880727,3.634999999999991,4.031099999994012,4.3681999999880645,4.697999999999979,5.014799999997024]",,,,,,,NoisyChannelLearning_PilotExp2,,,
﻿,67ec910001675b3ed2ca68d9,,,,,j,,,0,FR.png,238.54399999999998,,,,,1.12729999999695,239.04420000000295,,2023.2.1,235.61,,237.12670000000298,,,,,,1,,,,0,0,,FR.png,,,,237.37679999999705,,,,,,,,,,,,f,0,Win32,n,,,,,,,,,,237.37679999999705,,,,,,,,,,67ea50cb1cc5e59473a47d51,,,,,,,j,,,,moving word,,,,16,,,,1,001,,238.54399999999998,0,,,,,,,,,,,,,,,,,,,,,,,,,,,,,2025-04-01_21h50.12.280,,2025-04-01_21h50.29.362,,,,67ec97c94fdeb4da1eff7fd3,,,,,,,,,,,,,0,,,67ea50cb1cc5e59473a47d51,,,,,NoisyChannelLearning,1.5059999999999718,,,,,,,001,,,,,,,,,59.88023952095548,,PARTICIPANT,,j,,,return,,,,,237.12900000000002,,,,,NoisyChannelLearning_PilotExp2,,,
﻿,67ec910001675b3ed2ca68d9,,,,,j,,,1,FR.png,240.711599999994,,,,,1.402499999999975,241.211599999994,,2023.2.1,,,,,,,,,1,,,,0,1,,FR.png,,,,239.294099999994,,,,,,,,,,,,f,45,Win32,n,,,,,,,,,,239.294099999994,,,,,,,,,,67ea50cb1cc5e59473a47d51,,,,,,,j,,,,moving word,,,,22,,,,1,001,,240.71149999999994,45,,,,,,,,,,,,,,,,,,,,,,,,,,,,,2025-04-01_21h50.12.280,,2025-04-01_21h50.29.362,,,,67ec97c94fdeb4da1eff7fd3,,,,,,,,,,,,,0,,,67ea50cb1cc5e59473a47d51,,,,,NoisyChannelLearning,,,,,,,,001,,,,,,,,,59.88023952095548,,PARTICIPANT,,j,,,,,,,,239.04449999999997,,,,,NoisyChannelLearning_PilotExp2,,,
﻿,67ec910001675b3ed2ca68d9,,,,,f,,,2,F.png,242.21220000000295,,,,,0.7138999999910993,242.71220000000295,,2023.2.1,,,,,,,,,1,,,,0,2,,FR.png,,,,241.46179999999697,,,,,,,,,,,,j,0,Win32,y,,,,,,,,,,241.46179999999697,,,,,,,,,,67ea50cb1cc5e59473a47d51,,,,,,,f,,,,moving word,,,,25,,,,1,001,,242.212099999994,0,,,,,,,,,,,,,,,,,,,,,,,,,,,,,2025-04-01_21h50.12.280,,2025-04-01_21h50.29.362,,,,67ec97c94fdeb4da1eff7fd3,,,,,,,,,,,,,0,,,67ea50cb1cc5e59473a47d51,,,,,NoisyChannelLearning,,,,,,,,001,,,,,,,,,59.88023952095548,,PARTICIPANT,,f,,,,,,,,241.21179999999697,,,,,NoisyChannelLearning_PilotExp2,,,
﻿,67ec910001675b3ed2ca68d9,,,,,j,,,3,F.png,243.79629999999696,,,,,0.7987000000030093,244.296099999994,,2023.2.1,,,,,,,,,1,,,,0,3,,F.png,,,,242.9624000000059,,,,,,,,,,,,f,0,Win32,n,,,,,,,,,,242.9624000000059,,,,,,,,,,67ea50cb1cc5e59473a47d51,,,,,,,j,,,,moving word,,,,0,,,,1,001,,243.79629999999696,0,,,,,,,,,,,,,,,,,,,,,,,,,,,,,2025-04-01_21h50.12.280,,2025-04-01_21h50.29.362,,,,67ec97c94fdeb4da1eff7fd3,,,,,,,,,,,,,0,,,67ea50cb1cc5e59473a47d51,,,,,NoisyChannelLearning,,,,,,,,001,,,,,,,,,59.88023952095548,,PARTICIPANT,,j,,,,,,,,242.71259999999398,,,,,NoisyChannelLearning_PilotExp2,,,
﻿,67ec910001675b3ed2ca68d9,0.21620000000297068,mrs.,250.39859999999402,,,,,,,,,,245.29709999999397,"[""space"",""space"",""space"",""space"",""space"",""space"",""space"",""space"",""space"",""space"",""space"",""space"",""space"",""space"",""space""]",,,0.4980908174000001,2023.2.1,,,,"[null,null,null,null,null,null,null,null,null,null,null,null,null,null,null]",,,,,,,,mr. and mrs.,,,,,unrelated,,,,"They watched the fireworks explode in the night sky, their faces lit up with excitement.",,+ The couple call each other mrs. and mr. Smith even though they aren't married.,1,,,,,,,,,,Win32,,,0.6408346416,Is it the case that the couple aren't married?,,,,,,,,0.2322000000029334,0.49990000000599366,,,,,,1,,67ea50cb1cc5e59473a47d51,,,,4,,1,,,,,moving word,,,,,,0.21610000000896434,0.7991999999880477,,001,0.28369999998807316,,,244.29620000000295,,,,0.2493000000119423,0.21540000000595683,,mr.,,,0.28270000000293294,,unrelated,,,,250.39870000000292,,,0.33199999999999363,y,,,,,0,,6,2025-04-01_21h50.12.280,,2025-04-01_21h50.29.362,0.24960000000891114,0.54940000000596,,67ec97c94fdeb4da1eff7fd3,,not-frequent,,,"audio/prime_unrelated/They_watched_the_fireworks_explode_in_the_night_sky,_their_faces_lit_up_with_excitement.wav",,0.21609999999401452,,0.24950000000001182,3.799799999996992,,,,254.216599999994,,67ea50cb1cc5e59473a47d51,,,y,,NoisyChannelLearning,,,,,,,245.29709999999397,001,,,27,,0.2657000000029939,,Sentence (nonalphabetical),,59.88023952095548,0,PARTICIPANT,,,,,,8,,"[0.7847000000029425,1.350099999994029,1.63900000000001,1.9402000000029602,2.45059999999404,2.7034999999999627,2.9735000000000014,3.2060999999940236,3.5014999999999645,3.8512000000029616,4.084700000002954,4.3178999999910275,4.584700000002954,4.8515999999940504,5.08770000000294]",,,,,,,NoisyChannelLearning_PilotExp2,,,
﻿,67ec910001675b3ed2ca68d9,,,,,j,,,0,F.png,256.134099999994,,,,,1.0017000000029839,256.634099999994,,2023.2.1,254.21690000000592,,254.866799999997,,,,,,1,,,,0,0,,F.png,,,,255.1169000000059,,,,,,,,,,,,f,45,Win32,n,,,,,,,,,,255.116799999997,,,,,,,,,,67ea50cb1cc5e59473a47d51,,,,,,,j,,,,moving word,,,,2,,,,1,001,,256.134099999994,45,,,,,,,,,,,,,,,,,,,,,,,,,,,,,2025-04-01_21h50.12.280,,2025-04-01_21h50.29.362,,,,67ec97c94fdeb4da1eff7fd3,,,,,,,,,,,,,0,,,67ea50cb1cc5e59473a47d51,,,,,NoisyChannelLearning,0.634200000002977,,,,,,,001,,,,,,,,,59.88023952095548,,PARTICIPANT,,j,,,return,,,,,254.86959999999402,,,,,NoisyChannelLearning_PilotExp2,,,
﻿,67ec910001675b3ed2ca68d9,,,,,j,,,1,F.png,257.60120000000296,,,,,0.704100000008907,258.1015,,2023.2.1,,,,,,,,,1,,,,0,1,,F.png,,,,256.884099999994,,,,,,,,,,,,f,45,Win32,n,,,,,,,,,,256.884099999994,,,,,,,,,,67ea50cb1cc5e59473a47d51,,,,,,,j,,,,moving word,,,,6,,,,1,001,,257.601099999994,45,,,,,,,,,,,,,,,,,,,,,,,,,,,,,2025-04-01_21h50.12.280,,2025-04-01_21h50.29.362,,,,67ec97c94fdeb4da1eff7fd3,,,,,,,,,,,,,0,,,67ea50cb1cc5e59473a47d51,,,,,NoisyChannelLearning,,,,,,,,001,,,,,,,,,59.88023952095548,,PARTICIPANT,,j,,,,,,,,256.63449999999995,,,,,NoisyChannelLearning_PilotExp2,,,
﻿,67ec910001675b3ed2ca68d9,,,,,j,,,2,F.png,258.90170000000296,,,,,0.5332999999970411,259.40179999999697,,2023.2.1,,,,,,,,,1,,,,0,2,,F.png,,,,258.3514000000059,,,,,,,,,,,,f,45,Win32,n,,,,,,,,,,258.3514000000059,,,,,,,,,,67ea50cb1cc5e59473a47d51,,,,,,,j,,,,moving word,,,,14,,,,1,001,,258.901599999994,45,,,,,,,,,,,,,,,,,,,,,,,,,,,,,2025-04-01_21h50.12.280,,2025-04-01_21h50.29.362,,,,67ec97c94fdeb4da1eff7fd3,,,,,,,,,,,,,0,,,67ea50cb1cc5e59473a47d51,,,,,NoisyChannelLearning,,,,,,,,001,,,,,,,,,59.88023952095548,,PARTICIPANT,,j,,,,,,,,258.1019000000059,,,,,NoisyChannelLearning_PilotExp2,,,
﻿,67ec910001675b3ed2ca68d9,,,,,f,,,3,F.png,260.485599999994,,,,,0.7957000000029666,260.98570000000296,,2023.2.1,,,,,,,,,1,,,,0,3,,FR.png,,,,259.6519000000059,,,,,,,,,,,,j,0,Win32,y,,,,,,,,,,259.6519000000059,,,,,,,,,,67ea50cb1cc5e59473a47d51,,,,,,,f,,,,moving word,,,,29,,,,1,001,,260.485599999994,0,,,,,,,,,,,,,,,,,,,,,,,,,,,,,2025-04-01_21h50.12.280,,2025-04-01_21h50.29.362,,,,67ec97c94fdeb4da1eff7fd3,,,,,,,,,,,,,0,,,67ea50cb1cc5e59473a47d51,,,,,NoisyChannelLearning,,,,,,,,001,,,,,,,,,59.88023952095548,,PARTICIPANT,,f,,,,,,,,259.40220000000295,,,,,NoisyChannelLearning_PilotExp2,,,
﻿,67ec910001675b3ed2ca68d9,,,,,f,,,4,FR.png,262.83649999999994,,,,,1.5487000000029525,263.33649999999994,,2023.2.1,,,,,,,,,1,,,,0,4,,F.png,,,,261.23579999999697,,,,,,,,,,,,j,45,Win32,y,,,,,,,,,,261.23579999999697,,,,,,,,,,67ea50cb1cc5e59473a47d51,,,,,,,f,,,,moving word,,,,15,,,,1,001,,262.83640000000594,45,,,,,,,,,,,,,,,,,,,,,,,,,,,,,2025-04-01_21h50.12.280,,2025-04-01_21h50.29.362,,,,67ec97c94fdeb4da1eff7fd3,,,,,,,,,,,,,0,,,67ea50cb1cc5e59473a47d51,,,,,NoisyChannelLearning,,,,,,,,001,,,,,,,,,59.88023952095548,,PARTICIPANT,,f,,,,,,,,260.986,,,,,NoisyChannelLearning_PilotExp2,,,
﻿,67ec910001675b3ed2ca68d9,,hands,268.371799999997,,,,,,,,,,264.3369000000059,"[""space"",""space"",""space"",""space"",""space"",""space"",""space"",""space"",""space"",""space""]",,,-0.382257009,2023.2.1,,,,"[null,null,null,null,null,null,null,null,null,null]",,,,,,,,feet and hands,,,,,unrelated,,,,The crisp autumn air was filled with the scent of pine and fallen leaves.,,+ The child's feet and hands slowly grew very numb.,2,,,,,,,,,,Win32,,,0.4219806788,Were the child's limbs fine?,,,,,,,,0.3162000000029934,0.2829000000059523,,,,,,2,,67ea50cb1cc5e59473a47d51,,,,4,,1,,,,,moving word,,,,,,0.29939999999106703,1.16609999999406,,001,0.26629999999704523,,,263.336599999994,,,,0.26579999999705706,,,feet,,,0.28279999999705296,,unrelated,,,,268.371799999997,,,0.26590000000595637,n,,,,,0,,5,2025-04-01_21h50.12.280,,2025-04-01_21h50.29.362,,0.3994999999999891,,67ec97c94fdeb4da1eff7fd3,,not-frequent,,,audio/prime_unrelated/The_crisp_autumn_air_was_filled_with_the_scent_of_pine_and_fallen_leaves.wav,,,,,2.437099999994018,,,,270.822599999994,,67ea50cb1cc5e59473a47d51,,,n,,NoisyChannelLearning,,,,,,,264.33679999999697,001,,,17,,0.3329000000059068,,Sentence (alphabetical),,59.88023952095548,0,PARTICIPANT,,,,,,19,,"[1.1465999999940095,1.5640999999940277,1.9140999999939936,2.2169999999999845,2.5192999999969743,2.8485999999940077,3.1373999999910325,3.450899999991009,3.7407000000029598,4.014399999991042]",,,,,,,NoisyChannelLearning_PilotExp2,,,
﻿,67ec910001675b3ed2ca68d9,,,,,j,,,0,F.png,272.32320000000294,,,,,0.7432000000030143,272.823299999997,,2023.2.1,270.8229000000059,,271.2895,,,,,,1,,,,0,0,,F.png,,,,271.539599999994,,,,,,,,,,,,f,45,Win32,n,,,,,,,,,,271.5395,,,,,,,,,,67ea50cb1cc5e59473a47d51,,,,,,,j,,,,moving word,,,,2,,,,1,001,,272.32320000000294,45,,,,,,,,,,,,,,,,,,,,,,,,,,,,,2025-04-01_21h50.12.280,,2025-04-01_21h50.29.362,,,,67ec97c94fdeb4da1eff7fd3,,,,,,,,,,,,,0,,,67ea50cb1cc5e59473a47d51,,,,,NoisyChannelLearning,0.4474999999999909,,,,,,,001,,,,,,,,,59.88023952095548,,PARTICIPANT,,j,,,return,,,,,271.291599999994,,,,,NoisyChannelLearning_PilotExp2,,,
﻿,67ec910001675b3ed2ca68d9,,,,,j,,,1,F.png,273.79040000000595,,,,,0.6967000000030339,274.29049999999995,,2023.2.1,,,,,,,,,1,,,,0,1,,F.png,,,,273.0734000000059,,,,,,,,,,,,f,45,Win32,n,,,,,,,,,,273.0734000000059,,,,,,,,,,67ea50cb1cc5e59473a47d51,,,,,,,j,,,,moving word,,,,6,,,,1,001,,273.79040000000595,45,,,,,,,,,,,,,,,,,,,,,,,,,,,,,2025-04-01_21h50.12.280,,2025-04-01_21h50.29.362,,,,67ec97c94fdeb4da1eff7fd3,,,,,,,,,,,,,0,,,67ea50cb1cc5e59473a47d51,,,,,NoisyChannelLearning,,,,,,,,001,,,,,,,,,59.88023952095548,,PARTICIPANT,,j,,,,,,,,272.82370000000293,,,,,NoisyChannelLearning_PilotExp2,,,
﻿,67ec910001675b3ed2ca68d9,,,,,j,,,2,FR.png,275.50770000000296,,,,,0.9097999999970057,276.008,,2023.2.1,,,,,,,,,1,,,,0,2,,FR.png,,,,274.540599999994,,,,,,,,,,,,f,0,Win32,n,,,,,,,,,,274.540599999994,,,,,,,,,,67ea50cb1cc5e59473a47d51,,,,,,,j,,,,moving word,,,,24,,,,1,001,,275.50770000000296,0,,,,,,,,,,,,,,,,,,,,,,,,,,,,,2025-04-01_21h50.12.280,,2025-04-01_21h50.29.362,,,,67ec97c94fdeb4da1eff7fd3,,,,,,,,,,,,,0,,,67ea50cb1cc5e59473a47d51,,,,,NoisyChannelLearning,,,,,,,,001,,,,,,,,,59.88023952095548,,PARTICIPANT,,j,,,,,,,,274.290799999997,,,,,NoisyChannelLearning_PilotExp2,,,
﻿,67ec910001675b3ed2ca68d9,,,,,j,,,3,F.png,276.891599999994,,,,,0.5804000000059659,277.39170000000297,,2023.2.1,,,,,,,,,1,,,,0,3,,F.png,,,,276.258,,,,,,,,,,,,f,45,Win32,n,,,,,,,,,,276.258,,,,,,,,,,67ea50cb1cc5e59473a47d51,,,,,,,j,,,,moving word,,,,10,,,,1,001,,276.89149999999995,45,,,,,,,,,,,,,,,,,,,,,,,,,,,,,2025-04-01_21h50.12.280,,2025-04-01_21h50.29.362,,,,67ec97c94fdeb4da1eff7fd3,,,,,,,,,,,,,0,,,67ea50cb1cc5e59473a47d51,,,,,NoisyChannelLearning,,,,,,,,001,,,,,,,,,59.88023952095548,,PARTICIPANT,,j,,,,,,,,276.008299999997,,,,,NoisyChannelLearning_PilotExp2,,,
﻿,67ec910001675b3ed2ca68d9,,,,,f,,,4,FR.png,278.94249999999994,,,,,1.261799999997038,279.44249999999994,,2023.2.1,,,,,,,,,1,,,,0,4,,F.png,,,,277.641799999997,,,,,,,,,,,,j,45,Win32,y,,,,,,,,,,277.64170000000297,,,,,,,,,,67ea50cb1cc5e59473a47d51,,,,,,,f,,,,moving word,,,,15,,,,1,001,,278.94240000000593,45,,,,,,,,,,,,,,,,,,,,,,,,,,,,,2025-04-01_21h50.12.280,,2025-04-01_21h50.29.362,,,,67ec97c94fdeb4da1eff7fd3,,,,,,,,,,,,,0,,,67ea50cb1cc5e59473a47d51,,,,,NoisyChannelLearning,,,,,,,,001,,,,,,,,,59.88023952095548,,PARTICIPANT,,f,,,,,,,,277.39199999999994,,,,,NoisyChannelLearning_PilotExp2,,,
﻿,67ec910001675b3ed2ca68d9,0.2660999999940259,services,285.71170000000296,,,,,,,,,,280.4429000000059,"[""space"",""space"",""space"",""space"",""space"",""space"",""space"",""space"",""space"",""space"",""space"",""space"",""space"",""space"",""space""]",,,0.4925981151,2023.2.1,,,,"[null,null,null,null,null,null,null,null,null,null,null,null,null,null,null]",,,,,,,,goods and services,,,,,alphabetical,,,,The store offers a wide variety of goods and services to meet customer needs.,,+ They would not trade goods and services even for a large sum of money.,3,,,,,,,,,,Win32,,,0.6638593473,Were the village people willing to trade?,,,,,,,,0.23290000000599775,0.2827000000029898,,,,,,3,,67ea50cb1cc5e59473a47d51,,,,4,,1,,,,,moving word,,,,,,0.24950000000001182,0.8992999999970266,,001,0.2828999999910593,,,279.442599999994,,,,0.24950000000001182,0.2660999999940259,,goods,,,0.2496999999880245,,frequent,,,,285.71179999999697,,,0.29959999999402953,n,,,,,0,,1,2025-04-01_21h50.12.280,,2025-04-01_21h50.29.362,0.38279999999701886,0.4328000000119232,,67ec97c94fdeb4da1eff7fd3,,frequent,,,audio/prime_alpha/The_store_offers_a_wide_variety_of_goods_and_services_to_meet_customer_needs.wav,,0.26600000000001955,,0.28309999999407864,3.551499999999976,,,,289.2795,,67ea50cb1cc5e59473a47d51,,,n,,NoisyChannelLearning,,,,,,,280.44279999999696,001,,,22,,0.382900000005975,,Sentence (alphabetical),,59.88023952095548,0,PARTICIPANT,,,,,,18,,"[0.8832999999970639,1.337000000000046,1.7300999999940814,2.0080999999940445,2.2970999999940886,2.5507999999970252,2.8240000000000123,3.086099999994076,3.3809000000059655,3.6977999999970166,3.9829000000059978,4.271799999997029,4.569999999999993,4.96550000000002,5.24820000000301]",,,,,,,NoisyChannelLearning_PilotExp2,,,
﻿,67ec910001675b3ed2ca68d9,,,,,j,,,0,F.png,290.99699999999996,,,,,0.9507999999970025,291.49690000000595,,2023.2.1,289.2799000000059,,289.763099999994,,,,,,1,,,,0,0,,F.png,,,,290.013099999994,,,,,,,,,,,,f,45,Win32,n,,,,,,,,,,290.013099999994,,,,,,,,,,67ea50cb1cc5e59473a47d51,,,,,,,j,,,,moving word,,,,2,,,,1,001,,290.99690000000595,45,,,,,,,,,,,,,,,,,,,,,,,,,,,,,2025-04-01_21h50.12.280,,2025-04-01_21h50.29.362,,,,67ec97c94fdeb4da1eff7fd3,,,,,,,,,,,,,0,,,67ea50cb1cc5e59473a47d51,,,,,NoisyChannelLearning,0.464999999999975,,,,,,,001,,,,,,,,,59.88023952095548,,PARTICIPANT,,j,,,return,,,,,289.7654000000059,,,,,NoisyChannelLearning_PilotExp2,,,
﻿,67ec910001675b3ed2ca68d9,,,,,f,,,1,FR.png,292.71420000000296,,,,,0.9287999999970111,293.21420000000296,,2023.2.1,,,,,,,,,1,,,,0,1,,F.png,,,,291.747099999994,,,,,,,,,,,,j,45,Win32,y,,,,,,,,,,291.747099999994,,,,,,,,,,67ea50cb1cc5e59473a47d51,,,,,,,f,,,,moving word,,,,15,,,,1,001,,292.71399999999994,45,,,,,,,,,,,,,,,,,,,,,,,,,,,,,2025-04-01_21h50.12.280,,2025-04-01_21h50.29.362,,,,67ec97c94fdeb4da1eff7fd3,,,,,,,,,,,,,0,,,67ea50cb1cc5e59473a47d51,,,,,NoisyChannelLearning,,,,,,,,001,,,,,,,,,59.88023952095548,,PARTICIPANT,,f,,,,,,,,291.4972000000029,,,,,NoisyChannelLearning_PilotExp2,,,
﻿,67ec910001675b3ed2ca68d9,,,,,j,,,2,FR.png,295.03170000000296,,,,,1.532000000000039,295.53179999999696,,2023.2.1,,,,,,,,,1,,,,0,2,,FR.png,,,,293.4644000000059,,,,,,,,,,,,f,45,Win32,n,,,,,,,,,,293.46429999999697,,,,,,,,,,67ea50cb1cc5e59473a47d51,,,,,,,j,,,,moving word,,,,22,,,,1,001,,295.03170000000296,45,,,,,,,,,,,,,,,,,,,,,,,,,,,,,2025-04-01_21h50.12.280,,2025-04-01_21h50.29.362,,,,67ec97c94fdeb4da1eff7fd3,,,,,,,,,,,,,0,,,67ea50cb1cc5e59473a47d51,,,,,NoisyChannelLearning,,,,,,,,001,,,,,,,,,59.88023952095548,,PARTICIPANT,,j,,,,,,,,293.2145,,,,,NoisyChannelLearning_PilotExp2,,,
﻿,67ec910001675b3ed2ca68d9,,NA,301.650799999997,,,,,,,,,,296.53220000000294,"[""space"",""space"",""space"",""space"",""space"",""space"",""space"",""space"",""space"",""space"",""space"",""space""]",,,NA,2023.2.1,,,,"[null,null,null,null,null,null,null,null,null,null,null,null]",,,,,,,,NA,,,,,filler,,,,The lighthouse stood tall against the darkening sky.,,+ The trail led them deep into the heart of the forest.,4,,,,,,,,,,Win32,,,NA,Was the sky bright?,,,,,,,,0.34970000000299706,0.29929999999700385,,,,,,4,,67ea50cb1cc5e59473a47d51,,,,0,,1,,,,,moving word,,,,,,0.2826999999880968,1.1828000000119232,,001,0.29949999999996635,,,295.5319000000059,,,,0.3662000000030048,0.26600000000001955,,NA,,,0.31610000000893024,,NA,,,,301.65099999999995,,,0.38289999999108204,n,,,,,0,,NA,2025-04-01_21h50.12.280,,2025-04-01_21h50.29.362,,0.4327999999970302,,67ec97c94fdeb4da1eff7fd3,,NA,,,audio/prime_filler/The_lighthouse_stood_tall_against_the_darkening_sky.wav,,0.29939999999106703,,,3.221900000005917,,,,304.88529999999696,,67ea50cb1cc5e59473a47d51,,,n,,NoisyChannelLearning,,,,,,,296.53220000000294,001,,,185,,0.44950000000000045,,filler,,59.88023952095548,0,PARTICIPANT,,,,,,41,,"[1.1706000000089603,1.623300000011966,2.079499999999996,2.414700000002995,2.7337000000030116,3.0965000000000487,3.4846000000089816,3.780200000002992,4.099400000005971,4.499500000000012,4.78830000001193,5.10080000001193]",,,,,,,NoisyChannelLearning_PilotExp2,,,
﻿,67ec910001675b3ed2ca68d9,,,,,j,,,0,FR.png,307.102799999997,,,,,1.1635999999940054,307.60299999999995,,2023.2.1,304.88570000000294,,305.6689000000059,,,,,,1,,,,0,0,,FR.png,,,,305.919,,,,,,,,,,,,f,0,Win32,n,,,,,,,,,,305.919,,,,,,,,,,67ea50cb1cc5e59473a47d51,,,,,,,j,,,,moving word,,,,16,,,,1,001,,307.102799999997,0,,,,,,,,,,,,,,,,,,,,,,,,,,,,,2025-04-01_21h50.12.280,,2025-04-01_21h50.29.362,,,,67ec97c94fdeb4da1eff7fd3,,,,,,,,,,,,,0,,,67ea50cb1cc5e59473a47d51,,,,,NoisyChannelLearning,0.7728000000118982,,,,,,,001,,,,,,,,,59.88023952095548,,PARTICIPANT,,j,,,return,,,,,305.67090000000593,,,,,NoisyChannelLearning_PilotExp2,,,
﻿,67ec910001675b3ed2ca68d9,,,,,j,,,1,FR.png,308.5034000000059,,,,,0.6340000000000146,309.0035,,2023.2.1,,,,,,,,,1,,,,0,1,,FR.png,,,,307.853099999994,,,,,,,,,,,,f,0,Win32,n,,,,,,,,,,307.853099999994,,,,,,,,,,67ea50cb1cc5e59473a47d51,,,,,,,j,,,,moving word,,,,20,,,,1,001,,308.5034000000059,0,,,,,,,,,,,,,,,,,,,,,,,,,,,,,2025-04-01_21h50.12.280,,2025-04-01_21h50.29.362,,,,67ec97c94fdeb4da1eff7fd3,,,,,,,,,,,,,0,,,67ea50cb1cc5e59473a47d51,,,,,NoisyChannelLearning,,,,,,,,001,,,,,,,,,59.88023952095548,,PARTICIPANT,,j,,,,,,,,307.60349999999994,,,,,NoisyChannelLearning_PilotExp2,,,
﻿,67ec910001675b3ed2ca68d9,,,,,j,,,2,F.png,310.1374000000059,,,,,0.8235000000000241,310.6374000000059,,2023.2.1,,,,,,,,,1,,,,0,2,,F.png,,,,309.253599999994,,,,,,,,,,,,f,0,Win32,n,,,,,,,,,,309.253599999994,,,,,,,,,,67ea50cb1cc5e59473a47d51,,,,,,,j,,,,moving word,,,,12,,,,1,001,,310.13729999999697,0,,,,,,,,,,,,,,,,,,,,,,,,,,,,,2025-04-01_21h50.12.280,,2025-04-01_21h50.29.362,,,,67ec97c94fdeb4da1eff7fd3,,,,,,,,,,,,,0,,,67ea50cb1cc5e59473a47d51,,,,,NoisyChannelLearning,,,,,,,,001,,,,,,,,,59.88023952095548,,PARTICIPANT,,j,,,,,,,,309.0039000000059,,,,,NoisyChannelLearning_PilotExp2,,,
﻿,67ec910001675b3ed2ca68d9,,NA,315.306,,,,,,,,,,311.63779999999696,"[""space"",""space"",""space"",""space"",""space"",""space"",""space"",""space"",""space"",""space"",""space""]",,,NA,2023.2.1,,,,"[null,null,null,null,null,null,null,null,null,null,null]",,,,,,,,NA,,,,,filler,,,,The soft glow of the candle illuminated her face.,,+ She left footprints in the wet sand that soon disappeared.,5,,,,,,,,,,Win32,,,NA,Was the sand dry?,,,,,,,,0.23289999999104793,0.29940000000596,,,,,,5,,67ea50cb1cc5e59473a47d51,,,,0,,1,,,,,moving word,,,,,,0.2823999999910711,0.41590000000593363,,001,0.26609999999408274,,,310.6375,,,,0.24970000000297432,0.33300000000002683,,NA,,,0.3162000000029934,,NA,,,,315.306099999994,,,0.28300000000001546,n,,,,,0,,NA,2025-04-01_21h50.12.280,,2025-04-01_21h50.29.362,,0.3827000000029557,,67ec97c94fdeb4da1eff7fd3,,NA,,,audio/prime_filler/The_soft_glow_of_the_candle_illuminated_her_face.wav,,,,,3.0545000000000186,,,,318.373599999994,,67ea50cb1cc5e59473a47d51,,,n,,NoisyChannelLearning,,,,,,,311.63770000000295,001,,,123,,0.4329000000059864,,filler,,59.88023952095548,0,PARTICIPANT,,,,,,39,,"[0.4052999999969984,0.7964999999999804,1.256099999994035,1.5800999999940473,1.9003999999910661,2.155099999994036,2.4250000000000114,2.715799999996989,3.002599999994061,3.298999999999978,3.6475999999940427]",,,,,,,NoisyChannelLearning_PilotExp2,,,
﻿,67ec910001675b3ed2ca68d9,,,,,j,,,0,F.png,320.04099999999994,,,,,0.796799999997063,320.541099999994,,2023.2.1,318.37399999999997,,318.97379999999697,,,,,,1,,,,0,0,,F.png,,,,319.224,,,,,,,,,,,,f,0,Win32,n,,,,,,,,,,319.224,,,,,,,,,,67ea50cb1cc5e59473a47d51,,,,,,,j,,,,moving word,,,,4,,,,1,001,,320.04099999999994,0,,,,,,,,,,,,,,,,,,,,,,,,,,,,,2025-04-01_21h50.12.280,,2025-04-01_21h50.29.362,,,,67ec97c94fdeb4da1eff7fd3,,,,,,,,,,,,,0,,,67ea50cb1cc5e59473a47d51,,,,,NoisyChannelLearning,0.5805000000000291,,,,,,,001,,,,,,,,,59.88023952095548,,PARTICIPANT,,j,,,return,,,,,318.97590000000594,,,,,NoisyChannelLearning_PilotExp2,,,
﻿,67ec910001675b3ed2ca68d9,,,,,j,,,1,FR.png,321.5749000000059,,,,,0.7314999999999827,322.0749000000059,,2023.2.1,,,,,,,,,1,,,,0,1,,FR.png,,,,320.79120000000296,,,,,,,,,,,,f,0,Win32,n,,,,,,,,,,320.79120000000296,,,,,,,,,,67ea50cb1cc5e59473a47d51,,,,,,,j,,,,moving word,,,,24,,,,1,001,,321.57479999999697,0,,,,,,,,,,,,,,,,,,,,,,,,,,,,,2025-04-01_21h50.12.280,,2025-04-01_21h50.29.362,,,,67ec97c94fdeb4da1eff7fd3,,,,,,,,,,,,,0,,,67ea50cb1cc5e59473a47d51,,,,,NoisyChannelLearning,,,,,,,,001,,,,,,,,,59.88023952095548,,PARTICIPANT,,j,,,,,,,,320.5414000000059,,,,,NoisyChannelLearning_PilotExp2,,,
﻿,67ec910001675b3ed2ca68d9,,,,,f,,,2,FR.png,323.609,,,,,1.249100000008923,324.109099999994,,2023.2.1,,,,,,,,,1,,,,0,2,,F.png,,,,322.325099999994,,,,,,,,,,,,j,45,Win32,y,,,,,,,,,,322.325099999994,,,,,,,,,,67ea50cb1cc5e59473a47d51,,,,,,,f,,,,moving word,,,,15,,,,1,001,,323.6089000000059,45,,,,,,,,,,,,,,,,,,,,,,,,,,,,,2025-04-01_21h50.12.280,,2025-04-01_21h50.29.362,,,,67ec97c94fdeb4da1eff7fd3,,,,,,,,,,,,,0,,,67ea50cb1cc5e59473a47d51,,,,,NoisyChannelLearning,,,,,,,,001,,,,,,,,,59.88023952095548,,PARTICIPANT,,f,,,,,,,,322.07529999999696,,,,,NoisyChannelLearning_PilotExp2,,,
﻿,67ec910001675b3ed2ca68d9,,,,,j,,,3,FR.png,325.79320000000297,,,,,1.39549999999997,326.29320000000297,,2023.2.1,,,,,,,,,1,,,,0,3,,FR.png,,,,324.35920000000294,,,,,,,,,,,,f,45,Win32,n,,,,,,,,,,324.359099999994,,,,,,,,,,67ea50cb1cc5e59473a47d51,,,,,,,j,,,,moving word,,,,30,,,,1,001,,325.793099999994,45,,,,,,,,,,,,,,,,,,,,,,,,,,,,,2025-04-01_21h50.12.280,,2025-04-01_21h50.29.362,,,,67ec97c94fdeb4da1eff7fd3,,,,,,,,,,,,,0,,,67ea50cb1cc5e59473a47d51,,,,,NoisyChannelLearning,,,,,,,,001,,,,,,,,,59.88023952095548,,PARTICIPANT,,j,,,,,,,,324.10949999999997,,,,,NoisyChannelLearning_PilotExp2,,,
﻿,67ec910001675b3ed2ca68d9,0.38279999999701886,son,332.94599999999997,,,,,,,,,,327.293599999994,"[""space"",""space"",""space"",""space"",""space"",""space"",""space"",""space"",""space"",""space"",""space"",""space"",""space"",""space"",""space"",""space""]",,,0.4679236355000001,2023.2.1,,,,"[null,null,null,null,null,null,null,null,null,null,null,null,null,null,null,null]",,,,,,,,father and son,,,,,alphabetical,,,,The bond between father and son grew deeper with each passing year.,,+ Eric enjoys watching movies with his son and father so much that he goes often.,6,,,,,,,,,,Win32,,,0.5278980018,Does Eric hate movies?,,,,,,,,0.2661000000089757,0.2827999999969961,,,,,,6,,67ea50cb1cc5e59473a47d51,,,,4,,1,,,,,moving word,,,,,,0.2660999999940259,0.4827000000029784,,001,0.3494999999999777,,,326.29340000000593,,,,0.26600000000001955,0.3660999999939918,,father,,,0.2995000000000232,,frequent,,,,332.94599999999997,,,0.3494000000059714,n,,0.3324999999999818,,,0,,2,2025-04-01_21h50.12.280,,2025-04-01_21h50.29.362,0.3494999999999777,0.3492999999970152,,67ec97c94fdeb4da1eff7fd3,,not-frequent,,,audio/prime_alpha/The_bond_between_father_and_son_grew_deeper_with_each_passing_year.wav,,0.3824999999999932,,0.2826999999880968,1.728600000008953,,,,334.6964000000059,,67ea50cb1cc5e59473a47d51,,,n,,NoisyChannelLearning,,,,,,,327.293599999994,001,,,15,,0.3830000000000382,,Sentence (nonalphabetical),,59.88023952095548,0,PARTICIPANT,,,,,,3,,"[0.4678999999910616,0.8298999999910848,1.2335000000000491,1.5468999999910693,1.8487000000030207,2.1350000000000477,2.422599999994077,2.6973999999910916,3.068700000002991,3.434500000000014,3.8152999999970234,4.214500000000044,4.514599999994061,4.882399999991094,5.288799999997025,5.631700000003036]",,,,,,,NoisyChannelLearning_PilotExp2,,,
﻿,67ec910001675b3ed2ca68d9,,,,,j,,,0,FR.png,336.297099999994,,,,,0.8379000000059591,336.79720000000293,,2023.2.1,334.69690000000594,,335.196599999994,,,,,,1,,,,0,0,,FR.png,,,,335.446799999997,,,,,,,,,,,,f,0,Win32,n,,,,,,,,,,335.4467000000029,,,,,,,,,,67ea50cb1cc5e59473a47d51,,,,,,,j,,,,moving word,,,,28,,,,1,001,,336.297099999994,0,,,,,,,,,,,,,,,,,,,,,,,,,,,,,2025-04-01_21h50.12.280,,2025-04-01_21h50.29.362,,,,67ec97c94fdeb4da1eff7fd3,,,,,,,,,,,,,0,,,67ea50cb1cc5e59473a47d51,,,,,NoisyChannelLearning,0.48570000000302116,,,,,,,001,,,,,,,,,59.88023952095548,,PARTICIPANT,,j,,,return,,,,,335.19899999999996,,,,,NoisyChannelLearning_PilotExp2,,,
﻿,67ec910001675b3ed2ca68d9,,,,,j,,,1,FR.png,337.847599999994,,,,,0.7810999999940123,338.347799999997,,2023.2.1,,,,,,,,,1,,,,0,1,,FR.png,,,,337.047299999997,,,,,,,,,,,,f,45,Win32,n,,,,,,,,,,337.047299999997,,,,,,,,,,67ea50cb1cc5e59473a47d51,,,,,,,j,,,,moving word,,,,30,,,,1,001,,337.847599999994,45,,,,,,,,,,,,,,,,,,,,,,,,,,,,,2025-04-01_21h50.12.280,,2025-04-01_21h50.29.362,,,,67ec97c94fdeb4da1eff7fd3,,,,,,,,,,,,,0,,,67ea50cb1cc5e59473a47d51,,,,,NoisyChannelLearning,,,,,,,,001,,,,,,,,,59.88023952095548,,PARTICIPANT,,j,,,,,,,,336.7977000000029,,,,,NoisyChannelLearning_PilotExp2,,,
﻿,67ec910001675b3ed2ca68d9,,,,,j,,,2,F.png,339.281599999994,,,,,0.6241999999880932,339.78149999999994,,2023.2.1,,,,,,,,,1,,,,0,2,,F.png,,,,338.59790000000595,,,,,,,,,,,,f,0,Win32,n,,,,,,,,,,338.59790000000595,,,,,,,,,,67ea50cb1cc5e59473a47d51,,,,,,,j,,,,moving word,,,,8,,,,1,001,,339.28149999999994,0,,,,,,,,,,,,,,,,,,,,,,,,,,,,,2025-04-01_21h50.12.280,,2025-04-01_21h50.29.362,,,,67ec97c94fdeb4da1eff7fd3,,,,,,,,,,,,,0,,,67ea50cb1cc5e59473a47d51,,,,,NoisyChannelLearning,,,,,,,,001,,,,,,,,,59.88023952095548,,PARTICIPANT,,j,,,,,,,,338.3482000000029,,,,,NoisyChannelLearning_PilotExp2,,,
﻿,67ec910001675b3ed2ca68d9,,,,,j,,,3,FR.png,340.882099999994,,,,,0.7965000000000373,341.38220000000297,,2023.2.1,,,,,,,,,1,,,,0,3,,FR.png,,,,340.03170000000296,,,,,,,,,,,,f,0,Win32,n,,,,,,,,,,340.031599999994,,,,,,,,,,67ea50cb1cc5e59473a47d51,,,,,,,j,,,,moving word,,,,16,,,,1,001,,340.882099999994,0,,,,,,,,,,,,,,,,,,,,,,,,,,,,,2025-04-01_21h50.12.280,,2025-04-01_21h50.29.362,,,,67ec97c94fdeb4da1eff7fd3,,,,,,,,,,,,,0,,,67ea50cb1cc5e59473a47d51,,,,,NoisyChannelLearning,,,,,,,,001,,,,,,,,,59.88023952095548,,PARTICIPANT,,j,,,,,,,,339.78179999999696,,,,,NoisyChannelLearning_PilotExp2,,,
﻿,67ec910001675b3ed2ca68d9,,NA,347.66790000000594,,,,,,,,,,342.38249999999994,"[""space"",""space"",""space"",""space"",""space"",""space"",""space"",""space"",""space"",""space"",""space""]",,,NA,2023.2.1,,,,"[null,null,null,null,null,null,null,null,null,null,null]",,,,,,,,NA,,,,,filler,,,,She tucked a flower behind her ear and smiled softly.,,"+ The street was silent, save for the occasional car passing.",7,,,,,,,,,,Win32,,,NA,Was the street loud?,,,,,,,,0.38259999999405636,0.3995999999939954,,,,,,7,,67ea50cb1cc5e59473a47d51,,,,0,,1,,,,,moving word,,,,,,0.532799999997053,0.7328999999910479,,001,0.41590000000593363,,,341.382299999997,,,,0.3994999999999891,0.3827000000030125,,NA,,,0.44959999999406364,,NA,,,,347.66799999999995,,,0.4329000000059864,n,,,,,0,,NA,2025-04-01_21h50.12.280,,2025-04-01_21h50.29.362,,0.5162999999970452,,67ec97c94fdeb4da1eff7fd3,,NA,,,audio/prime_filler/She_tucked_a_flower_behind_her_ear_and_smiled_softly.wav,,,,,2.653899999991097,,,,350.335599999994,,67ea50cb1cc5e59473a47d51,,,n,,NoisyChannelLearning,,,,,,,342.38249999999994,001,,,135,,0.4662000000030275,,filler,,59.88023952095548,0,PARTICIPANT,,,,,,37,,"[0.7162000000029707,1.2465999999940323,1.7378999999910434,2.196999999999946,2.6157000000029598,3.0184999999999604,3.4367999999969925,3.981099999994001,4.414599999994039,4.8672999999969875,5.264999999999986]",,,,,,,NoisyChannelLearning_PilotExp2,,,
﻿,67ec910001675b3ed2ca68d9,,,,,j,,,0,FR.png,351.769599999994,,,,,0.7690999999940118,352.26949999999994,,2023.2.1,350.33590000000595,,350.735599999994,,,,,,1,,,,0,0,,FR.png,,,,350.98579999999697,,,,,,,,,,,,f,0,Win32,n,,,,,,,,,,350.98570000000296,,,,,,,,,,67ea50cb1cc5e59473a47d51,,,,,,,j,,,,moving word,,,,20,,,,1,001,,351.76949999999994,0,,,,,,,,,,,,,,,,,,,,,,,,,,,,,2025-04-01_21h50.12.280,,2025-04-01_21h50.29.362,,,,67ec97c94fdeb4da1eff7fd3,,,,,,,,,,,,,0,,,67ea50cb1cc5e59473a47d51,,,,,NoisyChannelLearning,0.3897000000029607,,,,,,,001,,,,,,,,,59.88023952095548,,PARTICIPANT,,j,,,return,,,,,350.73749999999995,,,,,NoisyChannelLearning_PilotExp2,,,
﻿,67ec910001675b3ed2ca68d9,,,,,f,,,1,F.png,353.57020000000296,,,,,1.010099999994054,354.0704000000059,,2023.2.1,,,,,,,,,1,,,,0,1,,FR.png,,,,352.51970000000296,,,,,,,,,,,,j,45,Win32,y,,,,,,,,,,352.51970000000296,,,,,,,,,,67ea50cb1cc5e59473a47d51,,,,,,,f,,,,moving word,,,,23,,,,1,001,,353.570099999994,45,,,,,,,,,,,,,,,,,,,,,,,,,,,,,2025-04-01_21h50.12.280,,2025-04-01_21h50.29.362,,,,67ec97c94fdeb4da1eff7fd3,,,,,,,,,,,,,0,,,67ea50cb1cc5e59473a47d51,,,,,NoisyChannelLearning,,,,,,,,001,,,,,,,,,59.88023952095548,,PARTICIPANT,,f,,,,,,,,352.27,,,,,NoisyChannelLearning_PilotExp2,,,
﻿,67ec910001675b3ed2ca68d9,,,,,f,,,2,FR.png,355.63770000000295,,,,,1.2640999999940163,356.13770000000295,,2023.2.1,,,,,,,,,1,,,,0,2,,F.png,,,,354.3204000000059,,,,,,,,,,,,j,45,Win32,y,,,,,,,,,,354.3204000000059,,,,,,,,,,67ea50cb1cc5e59473a47d51,,,,,,,f,,,,moving word,,,,3,,,,1,001,,355.63770000000295,45,,,,,,,,,,,,,,,,,,,,,,,,,,,,,2025-04-01_21h50.12.280,,2025-04-01_21h50.29.362,,,,67ec97c94fdeb4da1eff7fd3,,,,,,,,,,,,,0,,,67ea50cb1cc5e59473a47d51,,,,,NoisyChannelLearning,,,,,,,,001,,,,,,,,,59.88023952095548,,PARTICIPANT,,f,,,,,,,,354.0709000000059,,,,,NoisyChannelLearning_PilotExp2,,,
﻿,67ec910001675b3ed2ca68d9,,NA,363.0904000000059,,,,,,,,,,357.13820000000294,"[""space"",""space"",""space"",""space"",""space"",""space"",""space"",""space"",""space"",""space"",""space""]",,,NA,2023.2.1,,,,"[null,null,null,null,null,null,null,null,null,null,null]",,,,,,,,NA,,,,,filler,,,,She carefully arranged flowers in a small glass vase.,,"+ The cat stretched lazily, basking in a patch of sunlight.",8,,,,,,,,,,Win32,,,NA,Was she reckless?,,,,,,,,0.69969999998807,0.46629999999703386,,,,,,8,,67ea50cb1cc5e59473a47d51,,,,0,,1,,,,,moving word,,,,,,0.38279999999701886,0.9660000000000082,,001,0.39950000000004593,,,356.13779999999696,,,,0.4494000000059373,0.31610000000893024,,NA,,,0.3994000000059259,,NA,,,,363.09049999999996,,,0.41620000000301616,n,,,,,0,,NA,2025-04-01_21h50.12.280,,2025-04-01_21h50.29.362,,0.8496999999880472,,67ec97c94fdeb4da1eff7fd3,,NA,,,audio/prime_filler/She_carefully_arranged_flowers_in_a_small_glass_vase.wav,,,,,1.9722999999970057,,,,365.074299999997,,67ea50cb1cc5e59473a47d51,,,n,,NoisyChannelLearning,,,,,,,357.13820000000294,001,,,161,,0.4327999999970302,,filler,,59.88023952095548,0,PARTICIPANT,,,,,,47,,"[0.9497999999970261,1.8168999999910511,2.263599999994028,2.68659999999403,3.163899999991088,3.881599999994023,4.35069999998808,4.758299999997007,5.164699999988102,5.598199999988083,5.9315999999940345]",,,,,,,NoisyChannelLearning_PilotExp2,,,
﻿,67ec910001675b3ed2ca68d9,,,,,j,,,0,FR.png,367.07520000000295,,,,,1.1307999999970093,367.57520000000295,,2023.2.1,365.07479999999697,,365.65799999999996,,,,,,1,,,,0,0,,FR.png,,,,365.908099999994,,,,,,,,,,,,f,45,Win32,n,,,,,,,,,,365.908099999994,,,,,,,,,,67ea50cb1cc5e59473a47d51,,,,,,,j,,,,moving word,,,,18,,,,1,001,,367.075099999994,45,,,,,,,,,,,,,,,,,,,,,,,,,,,,,2025-04-01_21h50.12.280,,2025-04-01_21h50.29.362,,,,67ec97c94fdeb4da1eff7fd3,,,,,,,,,,,,,0,,,67ea50cb1cc5e59473a47d51,,,,,NoisyChannelLearning,0.5684999999999718,,,,,,,001,,,,,,,,,59.88023952095548,,PARTICIPANT,,j,,,return,,,,,365.660099999994,,,,,NoisyChannelLearning_PilotExp2,,,
﻿,67ec910001675b3ed2ca68d9,,,,,f,,,1,F.png,368.55920000000293,,,,,0.6977000000030102,369.05920000000293,,2023.2.1,,,,,,,,,1,,,,0,1,,FR.png,,,,367.8254000000059,,,,,,,,,,,,j,45,Win32,y,,,,,,,,,,367.82529999999696,,,,,,,,,,67ea50cb1cc5e59473a47d51,,,,,,,f,,,,moving word,,,,19,,,,1,001,,368.559099999994,45,,,,,,,,,,,,,,,,,,,,,,,,,,,,,2025-04-01_21h50.12.280,,2025-04-01_21h50.29.362,,,,67ec97c94fdeb4da1eff7fd3,,,,,,,,,,,,,0,,,67ea50cb1cc5e59473a47d51,,,,,NoisyChannelLearning,,,,,,,,001,,,,,,,,,59.88023952095548,,PARTICIPANT,,f,,,,,,,,367.5755,,,,,NoisyChannelLearning_PilotExp2,,,
﻿,67ec910001675b3ed2ca68d9,,,,,f,,,2,F.png,370.80999999999995,,,,,1.4794999999999732,371.30999999999995,,2023.2.1,,,,,,,,,1,,,,0,2,,FR.png,,,,369.30920000000293,,,,,,,,,,,,j,0,Win32,y,,,,,,,,,,369.30920000000293,,,,,,,,,,67ea50cb1cc5e59473a47d51,,,,,,,f,,,,moving word,,,,25,,,,1,001,,370.80999999999995,0,,,,,,,,,,,,,,,,,,,,,,,,,,,,,2025-04-01_21h50.12.280,,2025-04-01_21h50.29.362,,,,67ec97c94fdeb4da1eff7fd3,,,,,,,,,,,,,0,,,67ea50cb1cc5e59473a47d51,,,,,NoisyChannelLearning,,,,,,,,001,,,,,,,,,59.88023952095548,,PARTICIPANT,,f,,,,,,,,369.059599999994,,,,,NoisyChannelLearning_PilotExp2,,,
﻿,67ec910001675b3ed2ca68d9,,,,,j,,,3,F.png,372.3105,,,,,0.7210999999940668,372.81070000000295,,2023.2.1,,,,,,,,,1,,,,0,3,,F.png,,,,371.560099999994,,,,,,,,,,,,f,45,Win32,n,,,,,,,,,,371.560099999994,,,,,,,,,,67ea50cb1cc5e59473a47d51,,,,,,,j,,,,moving word,,,,10,,,,1,001,,372.3105,45,,,,,,,,,,,,,,,,,,,,,,,,,,,,,2025-04-01_21h50.12.280,,2025-04-01_21h50.29.362,,,,67ec97c94fdeb4da1eff7fd3,,,,,,,,,,,,,0,,,67ea50cb1cc5e59473a47d51,,,,,NoisyChannelLearning,,,,,,,,001,,,,,,,,,59.88023952095548,,PARTICIPANT,,j,,,,,,,,371.31029999999697,,,,,NoisyChannelLearning_PilotExp2,,,
﻿,67ec910001675b3ed2ca68d9,,,,,f,,,4,FR.png,374.394599999994,,,,,1.3033999999910861,374.89479999999696,,2023.2.1,,,,,,,,,1,,,,0,4,,F.png,,,,373.06070000000295,,,,,,,,,,,,j,0,Win32,y,,,,,,,,,,373.06070000000295,,,,,,,,,,67ea50cb1cc5e59473a47d51,,,,,,,f,,,,moving word,,,,5,,,,1,001,,374.39449999999994,0,,,,,,,,,,,,,,,,,,,,,,,,,,,,,2025-04-01_21h50.12.280,,2025-04-01_21h50.29.362,,,,67ec97c94fdeb4da1eff7fd3,,,,,,,,,,,,,0,,,67ea50cb1cc5e59473a47d51,,,,,NoisyChannelLearning,,,,,,,,001,,,,,,,,,59.88023952095548,,PARTICIPANT,,f,,,,,,,,372.811,,,,,NoisyChannelLearning_PilotExp2,,,
﻿,67ec910001675b3ed2ca68d9,0.31639999999106294,effect,381.7807000000029,,,,,,,,,,375.895099999994,"[""space"",""space"",""space"",""space"",""space"",""space"",""space"",""space"",""space"",""space"",""space"",""space"",""space"",""space"",""space"",""space""]",,,0.4893920566,2023.2.1,,,,"[null,null,null,null,null,null,null,null,null,null,null,null,null,null,null,null]",,,,,,,,cause and effect,,,,,alphabetical,,,,The gathering was filled with laughter from brothers and sisters catching up after a long time apart.,,"+ Ryan was uncertain about the cause and effect of inflation, so he did some research.",9,,,,,,,,,,Win32,,,0.78038961,Did Ryan research about inflation?,,,,,,,,0.29939999999106703,0.26620000000298205,,,,,,9,,67ea50cb1cc5e59473a47d51,,,,4,,1,,,,,moving word,,,,,,0.31609999999403726,0.5824999999999818,,001,0.29940000000596,,,374.8949000000059,,,,0.2827999999969961,0.28279999999705296,,cause,,,0.3827000000029557,,frequent,,,,381.780799999997,,,0.2826999999880968,y,,0.38250000000005,,,0,,1,2025-04-01_21h50.12.280,,2025-04-01_21h50.29.362,0.38280000001191183,0.4155999999940718,,67ec97c94fdeb4da1eff7fd3,,frequent,,,audio/prime_alpha/The_gathering_was_filled_with_laughter_from_brothers_and_sisters_catching_up_after_a_long_time_apart.wav,,0.4830000000000041,,0.2659999999999627,1.8886000000089211,,,,383.681299999997,,67ea50cb1cc5e59473a47d51,,,y,,NoisyChannelLearning,,,,,,,375.895099999994,001,,,9,,0.38289999999108204,,Sentence (alphabetical),,59.88023952095548,0,PARTICIPANT,,,,,,23,,"[0.5720000000000027,1.0021000000089657,1.400800000011941,1.8068000000119468,2.081800000011924,2.3992000000029634,2.7052000000030034,3.0351000000089243,3.3538000000119155,3.656499999999994,3.9483000000119546,4.44770000000301,4.730900000005988,5.131900000005999,5.465200000002994,5.870700000003012]",,,,,,,NoisyChannelLearning_PilotExp2,,,
﻿,67ec910001675b3ed2ca68d9,,,,,f,,,0,FR.png,385.31529999999697,,,,,0.7837999999970293,385.8154000000059,,2023.2.1,383.68170000000293,,384.26470000000296,,,,,,1,,,,0,0,,F.png,,,,384.515,,,,,,,,,,,,j,45,Win32,y,,,,,,,,,,384.515,,,,,,,,,,67ea50cb1cc5e59473a47d51,,,,,,,f,,,,moving word,,,,11,,,,1,001,,385.31520000000296,45,,,,,,,,,,,,,,,,,,,,,,,,,,,,,2025-04-01_21h50.12.280,,2025-04-01_21h50.29.362,,,,67ec97c94fdeb4da1eff7fd3,,,,,,,,,,,,,0,,,67ea50cb1cc5e59473a47d51,,,,,NoisyChannelLearning,0.569500000000005,,,,,,,001,,,,,,,,,59.88023952095548,,PARTICIPANT,,f,,,return,,,,,384.26699999999994,,,,,NoisyChannelLearning_PilotExp2,,,
﻿,67ec910001675b3ed2ca68d9,,,,,j,,,1,FR.png,386.81579999999695,,,,,0.7142999999970243,387.316,,2023.2.1,,,,,,,,,1,,,,0,1,,FR.png,,,,386.0655,,,,,,,,,,,,f,0,Win32,n,,,,,,,,,,386.0654000000059,,,,,,,,,,67ea50cb1cc5e59473a47d51,,,,,,,j,,,,moving word,,,,28,,,,1,001,,386.81579999999695,0,,,,,,,,,,,,,,,,,,,,,,,,,,,,,2025-04-01_21h50.12.280,,2025-04-01_21h50.29.362,,,,67ec97c94fdeb4da1eff7fd3,,,,,,,,,,,,,0,,,67ea50cb1cc5e59473a47d51,,,,,NoisyChannelLearning,,,,,,,,001,,,,,,,,,59.88023952095548,,PARTICIPANT,,j,,,,,,,,385.81579999999695,,,,,NoisyChannelLearning_PilotExp2,,,
﻿,67ec910001675b3ed2ca68d9,,,,,f,,,2,FR.png,388.23299999999995,,,,,0.6371000000089566,388.733099999994,,2023.2.1,,,,,,,,,1,,,,0,2,,F.png,,,,387.566099999994,,,,,,,,,,,,j,45,Win32,y,,,,,,,,,,387.566099999994,,,,,,,,,,67ea50cb1cc5e59473a47d51,,,,,,,f,,,,moving word,,,,15,,,,1,001,,388.23299999999995,45,,,,,,,,,,,,,,,,,,,,,,,,,,,,,2025-04-01_21h50.12.280,,2025-04-01_21h50.29.362,,,,67ec97c94fdeb4da1eff7fd3,,,,,,,,,,,,,0,,,67ea50cb1cc5e59473a47d51,,,,,NoisyChannelLearning,,,,,,,,001,,,,,,,,,59.88023952095548,,PARTICIPANT,,f,,,,,,,,387.316299999997,,,,,NoisyChannelLearning_PilotExp2,,,
﻿,67ec910001675b3ed2ca68d9,,,,,f,,,3,FR.png,390.3507000000029,,,,,1.3524999999999636,390.850599999994,,2023.2.1,,,,,,,,,1,,,,0,3,,F.png,,,,388.983299999997,,,,,,,,,,,,j,0,Win32,y,,,,,,,,,,388.98320000000297,,,,,,,,,,67ea50cb1cc5e59473a47d51,,,,,,,f,,,,moving word,,,,1,,,,1,001,,390.350599999994,0,,,,,,,,,,,,,,,,,,,,,,,,,,,,,2025-04-01_21h50.12.280,,2025-04-01_21h50.29.362,,,,67ec97c94fdeb4da1eff7fd3,,,,,,,,,,,,,0,,,67ea50cb1cc5e59473a47d51,,,,,NoisyChannelLearning,,,,,,,,001,,,,,,,,,59.88023952095548,,PARTICIPANT,,f,,,,,,,,388.73340000000593,,,,,NoisyChannelLearning_PilotExp2,,,
﻿,67ec910001675b3ed2ca68d9,,,,,f,,,4,FR.png,391.98449999999997,,,,,0.8629000000059932,392.48449999999997,,2023.2.1,,,,,,,,,1,,,,0,4,,F.png,,,,391.10090000000594,,,,,,,,,,,,j,0,Win32,y,,,,,,,,,,391.10090000000594,,,,,,,,,,67ea50cb1cc5e59473a47d51,,,,,,,f,,,,moving word,,,,9,,,,1,001,,391.9844000000059,0,,,,,,,,,,,,,,,,,,,,,,,,,,,,,2025-04-01_21h50.12.280,,2025-04-01_21h50.29.362,,,,67ec97c94fdeb4da1eff7fd3,,,,,,,,,,,,,0,,,67ea50cb1cc5e59473a47d51,,,,,NoisyChannelLearning,,,,,,,,001,,,,,,,,,59.88023952095548,,PARTICIPANT,,f,,,,,,,,390.85099999999994,,,,,NoisyChannelLearning_PilotExp2,,,
﻿,67ec910001675b3ed2ca68d9,,girls,398.720299999997,,,,,,,,,,393.48490000000595,"[""space"",""space"",""space"",""space"",""space"",""space"",""space"",""space"",""space"",""space"",""space"",""space""]",,,0.3825195635000001,2023.2.1,,,,"[null,null,null,null,null,null,null,null,null,null,null,null]",,,,,,,,boys and girls,,,,,unrelated,,,,"The mountain trail was steep, but the view from the top made every step worth it.",,+ The teacher separated the boys and girls into two small groups.,10,,,,,,,,,,Win32,,,0.6258780033,Did the teacher separate the students into many groups?,,,,,,,,0.616200000002948,0.4662000000029707,,,,,,10,,67ea50cb1cc5e59473a47d51,,,,4,,1,,,,,moving word,,,,,,0.3495999999940409,0.8494000000059714,,001,0.4162999999970225,,,392.484599999994,,,,0.2997000000029857,0.29940000000596,,boys,,,0.3162000000029934,,unrelated,,,,398.7204000000059,,,0.3159000000059109,n,,,,,0,,5,2025-04-01_21h50.12.280,,2025-04-01_21h50.29.362,,0.4660000000000082,,67ec97c94fdeb4da1eff7fd3,,frequent,,,"audio/prime_unrelated/The_mountain_trail_was_steep,_but_the_view_from_the_top_made_every_step_worth_it.wav",,0.31610000000893024,,,3.352300000011951,,,,402.08809999999403,,67ea50cb1cc5e59473a47d51,,,n,,NoisyChannelLearning,,,,,,,393.48490000000595,001,,,6,,0.33280000001190047,,Sentence (alphabetical),,59.88023952095548,0,PARTICIPANT,,,,,,22,,"[0.834399999991092,1.3170999999940705,1.663899999991088,1.9971999999880836,2.4826999999880854,3.1141999999881023,3.4377999999970257,3.8017999999970584,4.235399999991046,4.56819999998811,4.8856999999881054,5.215099999994038]",,,,,,,NoisyChannelLearning_PilotExp2,,,
﻿,67ec910001675b3ed2ca68d9,,,,,j,,,0,F.png,403.838799999997,,,,,1.0272999999970125,404.33899999999994,,2023.2.1,402.08849999999995,,402.521599999994,,,,,,1,,,,0,0,,F.png,,,,402.7719000000059,,,,,,,,,,,,f,45,Win32,n,,,,,,,,,,402.7719000000059,,,,,,,,,,67ea50cb1cc5e59473a47d51,,,,,,,j,,,,moving word,,,,14,,,,1,001,,403.8387000000029,45,,,,,,,,,,,,,,,,,,,,,,,,,,,,,2025-04-01_21h50.12.280,,2025-04-01_21h50.29.362,,,,67ec97c94fdeb4da1eff7fd3,,,,,,,,,,,,,0,,,67ea50cb1cc5e59473a47d51,,,,,NoisyChannelLearning,0.4140000000000441,,,,,,,001,,,,,,,,,59.88023952095548,,PARTICIPANT,,j,,,return,,,,,402.52349999999996,,,,,NoisyChannelLearning_PilotExp2,,,
﻿,67ec910001675b3ed2ca68d9,,,,,j,,,1,F.png,405.10599999999994,,,,,0.49660000000892524,405.60620000000296,,2023.2.1,,,,,,,,,1,,,,0,1,,F.png,,,,404.58899999999994,,,,,,,,,,,,f,0,Win32,n,,,,,,,,,,404.58899999999994,,,,,,,,,,67ea50cb1cc5e59473a47d51,,,,,,,j,,,,moving word,,,,0,,,,1,001,,405.10599999999994,0,,,,,,,,,,,,,,,,,,,,,,,,,,,,,2025-04-01_21h50.12.280,,2025-04-01_21h50.29.362,,,,67ec97c94fdeb4da1eff7fd3,,,,,,,,,,,,,0,,,67ea50cb1cc5e59473a47d51,,,,,NoisyChannelLearning,,,,,,,,001,,,,,,,,,59.88023952095548,,PARTICIPANT,,j,,,,,,,,404.33920000000296,,,,,NoisyChannelLearning_PilotExp2,,,
﻿,67ec910001675b3ed2ca68d9,,,,,f,,,2,F.png,406.43999999999994,,,,,0.5477999999970393,406.93990000000593,,2023.2.1,,,,,,,,,1,,,,0,2,,FR.png,,,,405.85629999999696,,,,,,,,,,,,j,0,Win32,y,,,,,,,,,,405.85620000000296,,,,,,,,,,67ea50cb1cc5e59473a47d51,,,,,,,f,,,,moving word,,,,21,,,,1,001,,406.43990000000593,0,,,,,,,,,,,,,,,,,,,,,,,,,,,,,2025-04-01_21h50.12.280,,2025-04-01_21h50.29.362,,,,67ec97c94fdeb4da1eff7fd3,,,,,,,,,,,,,0,,,67ea50cb1cc5e59473a47d51,,,,,NoisyChannelLearning,,,,,,,,001,,,,,,,,,59.88023952095548,,PARTICIPANT,,f,,,,,,,,405.6065,,,,,NoisyChannelLearning_PilotExp2,,,
﻿,67ec910001675b3ed2ca68d9,,,,,f,,,3,F.png,407.75749999999994,,,,,0.5560999999940464,408.257099999994,,2023.2.1,,,,,,,,,1,,,,0,3,,FR.png,,,,407.18999999999994,,,,,,,,,,,,j,0,Win32,y,,,,,,,,,,407.18999999999994,,,,,,,,,,67ea50cb1cc5e59473a47d51,,,,,,,f,,,,moving word,,,,17,,,,1,001,,407.75740000000593,0,,,,,,,,,,,,,,,,,,,,,,,,,,,,,2025-04-01_21h50.12.280,,2025-04-01_21h50.29.362,,,,67ec97c94fdeb4da1eff7fd3,,,,,,,,,,,,,0,,,67ea50cb1cc5e59473a47d51,,,,,NoisyChannelLearning,,,,,,,,001,,,,,,,,,59.88023952095548,,PARTICIPANT,,f,,,,,,,,406.94020000000296,,,,,NoisyChannelLearning_PilotExp2,,,
﻿,67ec910001675b3ed2ca68d9,,,,,f,,,4,FR.png,409.491099999994,,,,,0.9337000000030002,409.991,,2023.2.1,,,,,,,,,1,,,,0,4,,F.png,,,,408.50720000000297,,,,,,,,,,,,j,0,Win32,y,,,,,,,,,,408.507099999994,,,,,,,,,,67ea50cb1cc5e59473a47d51,,,,,,,f,,,,moving word,,,,5,,,,1,001,,409.491099999994,0,,,,,,,,,,,,,,,,,,,,,,,,,,,,,2025-04-01_21h50.12.280,,2025-04-01_21h50.29.362,,,,67ec97c94fdeb4da1eff7fd3,,,,,,,,,,,,,0,,,67ea50cb1cc5e59473a47d51,,,,,NoisyChannelLearning,,,,,,,,001,,,,,,,,,59.88023952095548,,PARTICIPANT,,f,,,,,,,,408.25749999999994,,,,,NoisyChannelLearning_PilotExp2,,,
﻿,67ec910001675b3ed2ca68d9,,order,416.67699999999996,,,,,,,,,,410.9915,"[""space"",""space"",""space"",""space"",""space"",""space"",""space"",""space"",""space"",""space"",""space"",""space"",""space""]",,,0.4852172766,2023.2.1,,,,"[null,null,null,null,null,null,null,null,null,null,null,null,null]",,,,,,,,law and order,,,,,alphabetical,,,,The mayor promised to restore law and order to the troubled neighborhoods.,,+ There was a lack of order and law that caused some chaos.,11,,,,,,,,,,Win32,,,0.8870848891,Was there chaos?,,,,,,,,0.41609999999400316,0.41609999999400316,,,,,,11,,67ea50cb1cc5e59473a47d51,,,,4,,1,,,,,moving word,,,,,,0.4162000000029593,0.6827999999970302,,001,0.3495999999940409,,,409.991099999994,,,,0.43270000000296704,0.2998999999910552,,law,,,0.4330999999940559,,frequent,,,,416.677099999994,,,0.36619999998805497,n,,,,,0,,2,2025-04-01_21h50.12.280,,2025-04-01_21h50.29.362,,0.5161999999880891,,67ec97c94fdeb4da1eff7fd3,,not-frequent,,,audio/prime_alpha/The_mayor_promised_to_restore_law_and_order_to_the_troubled_neighborhoods.wav,,0.2996000000089225,,0.29949999999996635,3.13060000000894,,,,419.828,,67ea50cb1cc5e59473a47d51,,,y,,NoisyChannelLearning,,,,,,,410.9914000000059,001,,,24,,0.5495999999940295,,Sentence (nonalphabetical),,59.88023952095548,0,PARTICIPANT,,,,,,7,,"[0.6708000000119227,1.1965000000000146,1.7636000000089211,2.217200000003004,2.655100000008929,3.0807000000029916,3.5309000000059427,3.965400000005957,4.331700000002968,4.7223000000119555,5.042800000011937,5.348200000002976,5.666900000005967]",,,,,,,NoisyChannelLearning_PilotExp2,,,
﻿,67ec910001675b3ed2ca68d9,,,,,j,,,0,F.png,421.628799999997,,,,,0.8919999999999959,422.1289000000059,,2023.2.1,419.8284000000059,,420.44499999999994,,,,,,1,,,,0,0,,F.png,,,,420.69499999999994,,,,,,,,,,,,f,45,Win32,n,,,,,,,,,,420.69499999999994,,,,,,,,,,67ea50cb1cc5e59473a47d51,,,,,,,j,,,,moving word,,,,14,,,,1,001,,421.628799999997,45,,,,,,,,,,,,,,,,,,,,,,,,,,,,,2025-04-01_21h50.12.280,,2025-04-01_21h50.29.362,,,,67ec97c94fdeb4da1eff7fd3,,,,,,,,,,,,,0,,,67ea50cb1cc5e59473a47d51,,,,,NoisyChannelLearning,0.5971999999880495,,,,,,,001,,,,,,,,,59.88023952095548,,PARTICIPANT,,j,,,return,,,,,420.44690000000594,,,,,NoisyChannelLearning_PilotExp2,,,
﻿,67ec910001675b3ed2ca68d9,,,,,j,,,1,FR.png,423.09599999999995,,,,,0.6627000000029852,423.596099999994,,2023.2.1,,,,,,,,,1,,,,0,1,,FR.png,,,,422.37899999999996,,,,,,,,,,,,f,0,Win32,n,,,,,,,,,,422.37899999999996,,,,,,,,,,67ea50cb1cc5e59473a47d51,,,,,,,j,,,,moving word,,,,28,,,,1,001,,423.09599999999995,0,,,,,,,,,,,,,,,,,,,,,,,,,,,,,2025-04-01_21h50.12.280,,2025-04-01_21h50.29.362,,,,67ec97c94fdeb4da1eff7fd3,,,,,,,,,,,,,0,,,67ea50cb1cc5e59473a47d51,,,,,NoisyChannelLearning,,,,,,,,001,,,,,,,,,59.88023952095548,,PARTICIPANT,,j,,,,,,,,422.129299999997,,,,,NoisyChannelLearning_PilotExp2,,,
﻿,67ec910001675b3ed2ca68d9,,,,,j,,,2,FR.png,424.4632000000029,,,,,0.6037999999970225,424.963299999997,,2023.2.1,,,,,,,,,1,,,,0,2,,FR.png,,,,423.846299999997,,,,,,,,,,,,f,45,Win32,n,,,,,,,,,,423.84620000000297,,,,,,,,,,67ea50cb1cc5e59473a47d51,,,,,,,j,,,,moving word,,,,18,,,,1,001,,424.46309999999403,45,,,,,,,,,,,,,,,,,,,,,,,,,,,,,2025-04-01_21h50.12.280,,2025-04-01_21h50.29.362,,,,67ec97c94fdeb4da1eff7fd3,,,,,,,,,,,,,0,,,67ea50cb1cc5e59473a47d51,,,,,NoisyChannelLearning,,,,,,,,001,,,,,,,,,59.88023952095548,,PARTICIPANT,,j,,,,,,,,423.59640000000593,,,,,NoisyChannelLearning_PilotExp2,,,
﻿,67ec910001675b3ed2ca68d9,,,,,j,,,3,FR.png,425.94720000000297,,,,,0.7182000000029802,426.44720000000297,,2023.2.1,,,,,,,,,1,,,,0,3,,FR.png,,,,425.21340000000595,,,,,,,,,,,,f,45,Win32,n,,,,,,,,,,425.213299999997,,,,,,,,,,67ea50cb1cc5e59473a47d51,,,,,,,j,,,,moving word,,,,22,,,,1,001,,425.94720000000297,45,,,,,,,,,,,,,,,,,,,,,,,,,,,,,2025-04-01_21h50.12.280,,2025-04-01_21h50.29.362,,,,67ec97c94fdeb4da1eff7fd3,,,,,,,,,,,,,0,,,67ea50cb1cc5e59473a47d51,,,,,NoisyChannelLearning,,,,,,,,001,,,,,,,,,59.88023952095548,,PARTICIPANT,,j,,,,,,,,424.963599999994,,,,,NoisyChannelLearning_PilotExp2,,,
﻿,67ec910001675b3ed2ca68d9,,NA,431.532599999994,,,,,,,,,,427.44770000000295,"[""space"",""space"",""space"",""space"",""space"",""space"",""space"",""space"",""space"",""space"",""space""]",,,NA,2023.2.1,,,,"[null,null,null,null,null,null,null,null,null,null,null]",,,,,,,,NA,,,,,filler,,,,She watched as the fog rolled over the hills silently.,,"+ The fire crackled, filling the room with warmth and light.",12,,,,,,,,,,Win32,,,NA,Was it bright in the room?,,,,,,,,0.4328000000119232,0.2996000000089225,,,,,,12,,67ea50cb1cc5e59473a47d51,,,,0,,1,,,,,moving word,,,,,,0.28279999999705296,0.6157000000029598,,001,0.2829999999999586,,,426.44729999999697,,,,0.39489999999102565,0.29959999999402953,,NA,,,0.21610000000896434,,NA,,,,431.53270000000293,,,0.2996000000089225,y,,,,,0,,NA,2025-04-01_21h50.12.280,,2025-04-01_21h50.29.362,,0.4162999999970225,,67ec97c94fdeb4da1eff7fd3,,NA,,,audio/prime_filler/She_watched_as_the_fog_rolled_over_the_hills_silently.wav,,,,,2.541200000003016,,,,434.0834000000059,,67ea50cb1cc5e59473a47d51,,,n,,NoisyChannelLearning,,,,,,,427.447599999994,001,,,138,,0.36620000000294795,,filler,,59.88023952095548,0,PARTICIPANT,,,,,,48,,"[0.5962000000029661,1.0294999999999845,1.4191000000089389,1.6465000000000032,1.9696000000089384,2.413400000005936,2.8333000000119455,3.1404999999999745,3.4304000000059887,3.7477000000029648,4.06720000000297]",,,,,,,NoisyChannelLearning_PilotExp2,,,
﻿,67ec910001675b3ed2ca68d9,,,,,j,,,0,F.png,435.650799999997,,,,,0.8340999999940664,436.15090000000595,,2023.2.1,434.08399999999995,,434.516799999997,,,,,,1,,,,0,0,,F.png,,,,434.76690000000593,,,,,,,,,,,,f,0,Win32,n,,,,,,,,,,434.76690000000593,,,,,,,,,,67ea50cb1cc5e59473a47d51,,,,,,,j,,,,moving word,,,,4,,,,1,001,,435.650799999997,0,,,,,,,,,,,,,,,,,,,,,,,,,,,,,2025-04-01_21h50.12.280,,2025-04-01_21h50.29.362,,,,67ec97c94fdeb4da1eff7fd3,,,,,,,,,,,,,0,,,67ea50cb1cc5e59473a47d51,,,,,NoisyChannelLearning,0.42289999999104566,,,,,,,001,,,,,,,,,59.88023952095548,,PARTICIPANT,,j,,,return,,,,,434.51940000000593,,,,,NoisyChannelLearning_PilotExp2,,,
﻿,67ec910001675b3ed2ca68d9,,,,,f,,,1,FR.png,437.81820000000295,,,,,1.3815000000000168,438.318299999997,,2023.2.1,,,,,,,,,1,,,,0,1,,F.png,,,,436.40099999999995,,,,,,,,,,,,j,45,Win32,y,,,,,,,,,,436.40090000000595,,,,,,,,,,67ea50cb1cc5e59473a47d51,,,,,,,f,,,,moving word,,,,15,,,,1,001,,437.81820000000295,45,,,,,,,,,,,,,,,,,,,,,,,,,,,,,2025-04-01_21h50.12.280,,2025-04-01_21h50.29.362,,,,67ec97c94fdeb4da1eff7fd3,,,,,,,,,,,,,0,,,67ea50cb1cc5e59473a47d51,,,,,NoisyChannelLearning,,,,,,,,001,,,,,,,,,59.88023952095548,,PARTICIPANT,,f,,,,,,,,436.151299999997,,,,,NoisyChannelLearning_PilotExp2,,,
﻿,67ec910001675b3ed2ca68d9,,,,,j,,,2,FR.png,439.4354000000059,,,,,0.83480000001191,439.935599999994,,2023.2.1,,,,,,,,,1,,,,0,2,,FR.png,,,,438.5684000000059,,,,,,,,,,,,f,0,Win32,n,,,,,,,,,,438.5684000000059,,,,,,,,,,67ea50cb1cc5e59473a47d51,,,,,,,j,,,,moving word,,,,16,,,,1,001,,439.4354000000059,0,,,,,,,,,,,,,,,,,,,,,,,,,,,,,2025-04-01_21h50.12.280,,2025-04-01_21h50.29.362,,,,67ec97c94fdeb4da1eff7fd3,,,,,,,,,,,,,0,,,67ea50cb1cc5e59473a47d51,,,,,NoisyChannelLearning,,,,,,,,001,,,,,,,,,59.88023952095548,,PARTICIPANT,,j,,,,,,,,438.3185,,,,,NoisyChannelLearning_PilotExp2,,,
﻿,67ec910001675b3ed2ca68d9,,,,,f,,,3,F.png,441.76970000000296,,,,,1.553700000002948,442.26970000000296,,2023.2.1,,,,,,,,,1,,,,0,3,,FR.png,,,,440.18579999999696,,,,,,,,,,,,j,45,Win32,y,,,,,,,,,,440.18579999999696,,,,,,,,,,67ea50cb1cc5e59473a47d51,,,,,,,f,,,,moving word,,,,27,,,,1,001,,441.769599999994,45,,,,,,,,,,,,,,,,,,,,,,,,,,,,,2025-04-01_21h50.12.280,,2025-04-01_21h50.29.362,,,,67ec97c94fdeb4da1eff7fd3,,,,,,,,,,,,,0,,,67ea50cb1cc5e59473a47d51,,,,,NoisyChannelLearning,,,,,,,,001,,,,,,,,,59.88023952095548,,PARTICIPANT,,f,,,,,,,,439.93620000000294,,,,,NoisyChannelLearning_PilotExp2,,,
﻿,67ec910001675b3ed2ca68d9,,NA,448.172099999994,,,,,,,,,,443.270099999994,"[""space"",""space"",""space"",""space"",""space"",""space"",""space"",""space"",""space""]",,,NA,2023.2.1,,,,"[null,null,null,null,null,null,null,null,null]",,,,,,,,NA,,,,,filler,,,,The garden was alive with the buzzing of bees and birds.,,+ She watched the raindrops slide down the windowpane.,13,,,,,,,,,,Win32,,,NA,Was it sunny outside?,,,,,,,,0.36619999998805497,0.5994999999999777,,,,,,13,,67ea50cb1cc5e59473a47d51,,,,0,,1,,,,,moving word,,,,,,0.2995000000000232,0.7825000000000273,,001,0.31609999999403726,,,442.2699000000059,,,,0.33290000000596365,,,NA,,,0.6997000000030198,,NA,,,,448.17220000000293,,,,n,,,,,0,,NA,2025-04-01_21h50.12.280,,2025-04-01_21h50.29.362,,0.6664000000059787,,67ec97c94fdeb4da1eff7fd3,,NA,,,audio/prime_filler/The_garden_was_alive_with_the_buzzing_of_bees_and_birds.wav,,,,,2.813799999997002,,,,451.0064000000059,,67ea50cb1cc5e59473a47d51,,,n,,NoisyChannelLearning,,,,,,,443.270099999994,001,,,129,,0.6995000000000005,,filler,,59.88023952095548,0,PARTICIPANT,,,,,,45,,"[0.7659999999999627,1.4468999999910466,2.1732999999970275,2.8843999999910466,3.502599999994004,3.887599999993995,4.231399999991027,4.548000000000002,4.889799999997024]",,,,,,,NoisyChannelLearning_PilotExp2,,,
﻿,67ec910001675b3ed2ca68d9,,,,,j,,,0,FR.png,453.174,,,,,1.4162000000029593,453.6739000000059,,2023.2.1,451.006799999997,,451.4732000000029,,,,,,1,,,,0,0,,FR.png,,,,451.72340000000594,,,,,,,,,,,,f,45,Win32,n,,,,,,,,,,451.72340000000594,,,,,,,,,,67ea50cb1cc5e59473a47d51,,,,,,,j,,,,moving word,,,,30,,,,1,001,,453.1739000000059,45,,,,,,,,,,,,,,,,,,,,,,,,,,,,,2025-04-01_21h50.12.280,,2025-04-01_21h50.29.362,,,,67ec97c94fdeb4da1eff7fd3,,,,,,,,,,,,,0,,,67ea50cb1cc5e59473a47d51,,,,,NoisyChannelLearning,0.4512000000029843,,,,,,,001,,,,,,,,,59.88023952095548,,PARTICIPANT,,j,,,return,,,,,451.4752000000029,,,,,NoisyChannelLearning_PilotExp2,,,
﻿,67ec910001675b3ed2ca68d9,,,,,f,,,1,F.png,455.0245,,,,,1.0614000000059605,455.52470000000295,,2023.2.1,,,,,,,,,1,,,,0,1,,FR.png,,,,453.924099999994,,,,,,,,,,,,j,0,Win32,y,,,,,,,,,,453.924099999994,,,,,,,,,,67ea50cb1cc5e59473a47d51,,,,,,,f,,,,moving word,,,,25,,,,1,001,,455.0245,0,,,,,,,,,,,,,,,,,,,,,,,,,,,,,2025-04-01_21h50.12.280,,2025-04-01_21h50.29.362,,,,67ec97c94fdeb4da1eff7fd3,,,,,,,,,,,,,0,,,67ea50cb1cc5e59473a47d51,,,,,NoisyChannelLearning,,,,,,,,001,,,,,,,,,59.88023952095548,,PARTICIPANT,,f,,,,,,,,453.674299999997,,,,,NoisyChannelLearning_PilotExp2,,,
﻿,67ec910001675b3ed2ca68d9,,,,,f,,,2,FR.png,456.89199999999994,,,,,1.054600000008918,457.39199999999994,,2023.2.1,,,,,,,,,1,,,,0,2,,F.png,,,,455.775,,,,,,,,,,,,j,0,Win32,y,,,,,,,,,,455.77479999999696,,,,,,,,,,67ea50cb1cc5e59473a47d51,,,,,,,f,,,,moving word,,,,13,,,,1,001,,456.89199999999994,0,,,,,,,,,,,,,,,,,,,,,,,,,,,,,2025-04-01_21h50.12.280,,2025-04-01_21h50.29.362,,,,67ec97c94fdeb4da1eff7fd3,,,,,,,,,,,,,0,,,67ea50cb1cc5e59473a47d51,,,,,NoisyChannelLearning,,,,,,,,001,,,,,,,,,59.88023952095548,,PARTICIPANT,,f,,,,,,,,455.525,,,,,NoisyChannelLearning_PilotExp2,,,
﻿,67ec910001675b3ed2ca68d9,,NA,463.47790000000595,,,,,,,,,,458.3924000000059,"[""space"",""space"",""space"",""space"",""space"",""space"",""space"",""space"",""space"",""space"",""space""]",,,NA,2023.2.1,,,,"[null,null,null,null,null,null,null,null,null,null,null]",,,,,,,,NA,,,,,filler,,,,A faint scent of lavender filled the cozy little room.,,+ The echo of laughter lingered long after they had left.,14,,,,,,,,,,Win32,,,NA,Were they still there?,,,,,,,,0.5830000000000268,0.2999000000059482,,,,,,14,,67ea50cb1cc5e59473a47d51,,,,0,,1,,,,,moving word,,,,,,0.31609999999403726,0.79940000000596,,001,0.4329999999999927,,,457.39220000000296,,,,0.4162999999970225,0.4827999999970416,,NA,,,0.3159999999999741,,NA,,,,463.47790000000595,,,0.4327999999970302,n,,,,,0,,NA,2025-04-01_21h50.12.280,,2025-04-01_21h50.29.362,,0.4159999999999968,,67ec97c94fdeb4da1eff7fd3,,NA,,,audio/prime_filler/A_faint_scent_of_lavender_filled_the_cozy_little_room.wav,,,,,2.601400000005924,,,,466.0954000000059,,67ea50cb1cc5e59473a47d51,,,n,,NoisyChannelLearning,,,,,,,458.3924000000059,001,,,133,,0.4162999999970225,,filler,,59.88023952095548,0,PARTICIPANT,,,,,,49,,"[0.790200000002983,1.216799999997022,1.6545999999940477,1.9912000000030048,2.3022999999970466,2.897299999997017,3.335700000002987,3.6690000000000396,4.120900000005975,4.573400000005961,5.072500000000048]",,,,,,,NoisyChannelLearning_PilotExp2,,,
﻿,67ec910001675b3ed2ca68d9,,,,,f,,,0,FR.png,470.43020000000297,,,,,2.001400000006015,470.93040000000593,,2023.2.1,466.0957000000029,,468.162799999997,,,,,,0,,,,0,0,,F.png,,,,468.412799999997,,,,,,,,,,,,j,45,Win32,y,,,,,,,,,,468.412799999997,,,,,,,,,,67ea50cb1cc5e59473a47d51,,,,,,,f,,,,moving word,,,,7,,,,1,001,,470.430099999994,45,,,,,,,,,,,,,,,,,,,,,,,,,,,,,2025-04-01_21h50.12.280,,2025-04-01_21h50.29.362,,,,67ec97c94fdeb4da1eff7fd3,,,,,,,,,,,,,0,,,67ea50cb1cc5e59473a47d51,,,,,NoisyChannelLearning,2.0477999999970393,,,,,,,001,,,,,,,,,59.88023952095548,,PARTICIPANT,,j,,,return,,,,,468.16470000000294,,,,,NoisyChannelLearning_PilotExp2,,,
﻿,67ec910001675b3ed2ca68d9,,,,,j,,,1,F.png,471.78090000000594,,,,,0.560700000002953,472.28099999999995,,2023.2.1,,,,,,,,,1,,,,0,1,,F.png,,,,471.180599999994,,,,,,,,,,,,f,0,Win32,n,,,,,,,,,,471.18049999999994,,,,,,,,,,67ea50cb1cc5e59473a47d51,,,,,,,j,,,,moving word,,,,0,,,,1,001,,471.78090000000594,0,,,,,,,,,,,,,,,,,,,,,,,,,,,,,2025-04-01_21h50.12.280,,2025-04-01_21h50.29.362,,,,67ec97c94fdeb4da1eff7fd3,,,,,,,,,,,,,0,,,67ea50cb1cc5e59473a47d51,,,,,NoisyChannelLearning,,,,,,,,001,,,,,,,,,59.88023952095548,,PARTICIPANT,,j,,,,,,,,470.9309000000059,,,,,NoisyChannelLearning_PilotExp2,,,
﻿,67ec910001675b3ed2ca68d9,,,,,f,,,2,F.png,473.164799999997,,,,,0.597899999991057,473.6649000000059,,2023.2.1,,,,,,,,,1,,,,0,2,,FR.png,,,,472.531099999994,,,,,,,,,,,,j,0,Win32,y,,,,,,,,,,472.53099999999995,,,,,,,,,,67ea50cb1cc5e59473a47d51,,,,,,,f,,,,moving word,,,,17,,,,1,001,,473.164799999997,0,,,,,,,,,,,,,,,,,,,,,,,,,,,,,2025-04-01_21h50.12.280,,2025-04-01_21h50.29.362,,,,67ec97c94fdeb4da1eff7fd3,,,,,,,,,,,,,0,,,67ea50cb1cc5e59473a47d51,,,,,NoisyChannelLearning,,,,,,,,001,,,,,,,,,59.88023952095548,,PARTICIPANT,,f,,,,,,,,472.28120000000297,,,,,NoisyChannelLearning_PilotExp2,,,
﻿,67ec910001675b3ed2ca68d9,,NA,480.11740000000594,,,,,,,,,,474.66540000000595,"[""space"",""space"",""space"",""space"",""space"",""space"",""space"",""space"",""space"",""space"",""space"",""space""]",,,NA,2023.2.1,,,,"[null,null,null,null,null,null,null,null,null,null,null,null]",,,,,,,,NA,,,,,filler,,,,"The bakery was busy, filled with customers chatting.",,+ He tied his shoes and prepared for the long hike ahead.,15,,,,,,,,,,Win32,,,NA,Was the bakery busy?,,,,,,,,0.33289999999107067,0.2995000000000232,,,,,,15,,67ea50cb1cc5e59473a47d51,,,,0,,1,,,,,moving word,,,,,,0.34899999999998954,1.2823999999910711,,001,0.39960000000894524,,,473.66499999999996,,,,0.2995000000000232,0.41609999999406,,NA,,,0.3160000000000309,,NA,,,,480.11749999999995,,,0.29970000000292885,y,,,,,0,,NA,2025-04-01_21h50.12.280,,2025-04-01_21h50.29.362,,0.499600000008968,,67ec97c94fdeb4da1eff7fd3,,NA,,,"audio/prime_filler/The_bakery_was_busy,_filled_with_customers_chatting.wav",,0.3994999999999891,,,2.083599999994078,,,,482.21799999999996,,67ea50cb1cc5e59473a47d51,,,n,,NoisyChannelLearning,,,,,,,474.66540000000595,001,,,192,,0.36620000000294795,,filler,,59.88023952095548,0,PARTICIPANT,,,,,,34,,"[1.2712999999969838,1.7841000000088911,2.1689999999999827,2.5036000000089302,2.8232999999970048,3.1676000000089175,3.488999999999976,3.8512999999970248,4.268100000008928,4.585100000008936,5.018299999996998,5.435200000002965]",,,,,,,NoisyChannelLearning_PilotExp2,,,
﻿,67ec910001675b3ed2ca68d9,,,,,f,,,0,FR.png,484.268799999997,,,,,1.3487000000029639,484.76890000000594,,2023.2.1,482.21849999999995,,482.61820000000296,,,,,,1,,,,0,0,,F.png,,,,482.86829999999696,,,,,,,,,,,,j,0,Win32,y,,,,,,,,,,482.86820000000296,,,,,,,,,,67ea50cb1cc5e59473a47d51,,,,,,,f,,,,moving word,,,,1,,,,1,001,,484.2687000000029,0,,,,,,,,,,,,,,,,,,,,,,,,,,,,,2025-04-01_21h50.12.280,,2025-04-01_21h50.29.362,,,,67ec97c94fdeb4da1eff7fd3,,,,,,,,,,,,,0,,,67ea50cb1cc5e59473a47d51,,,,,NoisyChannelLearning,0.3901000000089425,,,,,,,001,,,,,,,,,59.88023952095548,,PARTICIPANT,,f,,,return,,,,,482.620099999994,,,,,NoisyChannelLearning_PilotExp2,,,
﻿,67ec910001675b3ed2ca68d9,,,,,f,,,1,F.png,485.88640000000595,,,,,0.8210000000000264,486.386099999994,,2023.2.1,,,,,,,,,1,,,,0,1,,FR.png,,,,485.01899999999995,,,,,,,,,,,,j,0,Win32,y,,,,,,,,,,485.01899999999995,,,,,,,,,,67ea50cb1cc5e59473a47d51,,,,,,,f,,,,moving word,,,,29,,,,1,001,,485.886299999997,0,,,,,,,,,,,,,,,,,,,,,,,,,,,,,2025-04-01_21h50.12.280,,2025-04-01_21h50.29.362,,,,67ec97c94fdeb4da1eff7fd3,,,,,,,,,,,,,0,,,67ea50cb1cc5e59473a47d51,,,,,NoisyChannelLearning,,,,,,,,001,,,,,,,,,59.88023952095548,,PARTICIPANT,,f,,,,,,,,484.76920000000297,,,,,NoisyChannelLearning_PilotExp2,,,
﻿,67ec910001675b3ed2ca68d9,,,,,f,,,2,F.png,487.670099999994,,,,,1.017499999999984,488.17009999999397,,2023.2.1,,,,,,,,,1,,,,0,2,,FR.png,,,,486.636299999997,,,,,,,,,,,,j,45,Win32,y,,,,,,,,,,486.63620000000293,,,,,,,,,,67ea50cb1cc5e59473a47d51,,,,,,,f,,,,moving word,,,,27,,,,1,001,,487.66999999999996,45,,,,,,,,,,,,,,,,,,,,,,,,,,,,,2025-04-01_21h50.12.280,,2025-04-01_21h50.29.362,,,,67ec97c94fdeb4da1eff7fd3,,,,,,,,,,,,,0,,,67ea50cb1cc5e59473a47d51,,,,,NoisyChannelLearning,,,,,,,,001,,,,,,,,,59.88023952095548,,PARTICIPANT,,f,,,,,,,,486.38640000000595,,,,,NoisyChannelLearning_PilotExp2,,,
﻿,67ec910001675b3ed2ca68d9,,,,,j,,,3,FR.png,489.587599999994,,,,,1.1353000000119664,490.0874999999999,,2023.2.1,,,,,,,,,1,,,,0,3,,FR.png,,,,488.42040000000594,,,,,,,,,,,,f,0,Win32,n,,,,,,,,,,488.420299999997,,,,,,,,,,67ea50cb1cc5e59473a47d51,,,,,,,j,,,,moving word,,,,16,,,,1,001,,489.587599999994,0,,,,,,,,,,,,,,,,,,,,,,,,,,,,,2025-04-01_21h50.12.280,,2025-04-01_21h50.29.362,,,,67ec97c94fdeb4da1eff7fd3,,,,,,,,,,,,,0,,,67ea50cb1cc5e59473a47d51,,,,,NoisyChannelLearning,,,,,,,,001,,,,,,,,,59.88023952095548,,PARTICIPANT,,j,,,,,,,,488.17040000000594,,,,,NoisyChannelLearning_PilotExp2,,,
﻿,67ec910001675b3ed2ca68d9,,vegetables,496.27320000000304,,,,,,,,,,491.088099999994,"[""space"",""space"",""space"",""space"",""space"",""space"",""space"",""space"",""space"",""space"",""space"",""space"",""space""]",,,0.3501050683,2023.2.1,,,,"[null,null,null,null,null,null,null,null,null,null,null,null,null]",,,,,,,,fruits and vegetables,,,,,unrelated,,,,"The orchestra's music filled the hall, sending chills down the audience's spines.",,"+ Growing up, Paul ate his vegetables and fruits everyday at each meal.",16,,,,,,,,,,Win32,,,0.6085325242,Did Paul eat unhealthily growing up?,,,,,,,,0.34980000001201006,0.4162000000029593,,,,,,16,,67ea50cb1cc5e59473a47d51,,,,4,,1,,,,,moving word,,,,,,0.3160999999940941,0.6991999999880818,,001,0.3324999999999818,,,490.087599999994,,,,0.2995999999940864,0.4162000000029593,,fruits,,,0.34910000000888886,,unrelated,,,,496.273299999997,,,0.3662000000030048,n,,,,,0,,6,2025-04-01_21h50.12.280,,2025-04-01_21h50.29.362,,0.3324999999999818,,67ec97c94fdeb4da1eff7fd3,,not-frequent,,,"audio/prime_unrelated/The_orchestras_music_filled_the_hall,_sending_chills_down_the_audiences_spines.wav",,0.3489000000059832,,0.34950000000003456,2.567799999997078,,,,498.8575000000001,,67ea50cb1cc5e59473a47d51,,,n,,NoisyChannelLearning,,,,,,,491.0879999999999,001,,,19,,0.3994999999999891,,Sentence (nonalphabetical),,59.88023952095548,0,PARTICIPANT,,,,,,1,,"[0.6868000000118855,1.038400000005936,1.446700000003034,1.8224000000059277,2.2472000000029766,2.615000000000009,2.9307000000030143,3.270300000012014,3.6160000000000423,4.005000000000052,4.431500000000085,4.7979000000059955,5.169700000003047]",,,,,,,NoisyChannelLearning_PilotExp2,,,
﻿,67ec910001675b3ed2ca68d9,,,,,j,,,0,FR.png,500.842,,,,,0.9062999999970316,501.341700000003,,2023.2.1,498.85800000000006,,499.674400000006,,,,,,1,,,,0,0,,FR.png,,,,499.92449999999997,,,,,,,,,,,,f,0,Win32,n,,,,,,,,,,499.92449999999997,,,,,,,,,,67ea50cb1cc5e59473a47d51,,,,,,,j,,,,moving word,,,,20,,,,1,001,,500.84190000000604,0,,,,,,,,,,,,,,,,,,,,,,,,,,,,,2025-04-01_21h50.12.280,,2025-04-01_21h50.29.362,,,,67ec97c94fdeb4da1eff7fd3,,,,,,,,,,,,,0,,,67ea50cb1cc5e59473a47d51,,,,,NoisyChannelLearning,0.8079999999999927,,,,,,,001,,,,,,,,,59.88023952095548,,PARTICIPANT,,j,,,return,,,,,499.67650000000003,,,,,NoisyChannelLearning_PilotExp2,,,
﻿,67ec910001675b3ed2ca68d9,,,,,f,,,1,F.png,502.65909999999405,,,,,1.0322000000029448,503.15909999999405,,2023.2.1,,,,,,,,,1,,,,0,1,,FR.png,,,,501.5917999999971,,,,,,,,,,,,j,0,Win32,y,,,,,,,,,,501.5917999999971,,,,,,,,,,67ea50cb1cc5e59473a47d51,,,,,,,f,,,,moving word,,,,29,,,,1,001,,502.65890000000593,0,,,,,,,,,,,,,,,,,,,,,,,,,,,,,2025-04-01_21h50.12.280,,2025-04-01_21h50.29.362,,,,67ec97c94fdeb4da1eff7fd3,,,,,,,,,,,,,0,,,67ea50cb1cc5e59473a47d51,,,,,NoisyChannelLearning,,,,,,,,001,,,,,,,,,59.88023952095548,,PARTICIPANT,,f,,,,,,,,501.342,,,,,NoisyChannelLearning_PilotExp2,,,
﻿,67ec910001675b3ed2ca68d9,,,,,j,,,2,F.png,504.04290000000594,,,,,0.6012999999969679,504.54290000000594,,2023.2.1,,,,,,,,,1,,,,0,2,,F.png,,,,503.409200000003,,,,,,,,,,,,f,0,Win32,n,,,,,,,,,,503.409200000003,,,,,,,,,,67ea50cb1cc5e59473a47d51,,,,,,,j,,,,moving word,,,,4,,,,1,001,,504.04290000000594,0,,,,,,,,,,,,,,,,,,,,,,,,,,,,,2025-04-01_21h50.12.280,,2025-04-01_21h50.29.362,,,,67ec97c94fdeb4da1eff7fd3,,,,,,,,,,,,,0,,,67ea50cb1cc5e59473a47d51,,,,,NoisyChannelLearning,,,,,,,,001,,,,,,,,,59.88023952095548,,PARTICIPANT,,j,,,,,,,,503.15940000000603,,,,,NoisyChannelLearning_PilotExp2,,,
﻿,67ec910001675b3ed2ca68d9,,,,,f,,,3,FR.png,505.84370000000297,,,,,1.02150000000006,506.34370000000297,,2023.2.1,,,,,,,,,1,,,,0,3,,F.png,,,,504.793,,,,,,,,,,,,j,45,Win32,y,,,,,,,,,,504.793,,,,,,,,,,67ea50cb1cc5e59473a47d51,,,,,,,f,,,,moving word,,,,7,,,,1,001,,505.84370000000297,45,,,,,,,,,,,,,,,,,,,,,,,,,,,,,2025-04-01_21h50.12.280,,2025-04-01_21h50.29.362,,,,67ec97c94fdeb4da1eff7fd3,,,,,,,,,,,,,0,,,67ea50cb1cc5e59473a47d51,,,,,NoisyChannelLearning,,,,,,,,001,,,,,,,,,59.88023952095548,,PARTICIPANT,,f,,,,,,,,504.54309999999407,,,,,NoisyChannelLearning_PilotExp2,,,
﻿,67ec910001675b3ed2ca68d9,,,,,f,,,4,FR.png,507.91100000000006,,,,,1.3000000000000682,508.411099999994,,2023.2.1,,,,,,,,,1,,,,0,4,,F.png,,,,506.59370000000297,,,,,,,,,,,,j,45,Win32,y,,,,,,,,,,506.593599999994,,,,,,,,,,67ea50cb1cc5e59473a47d51,,,,,,,f,,,,moving word,,,,11,,,,1,001,,507.91100000000006,45,,,,,,,,,,,,,,,,,,,,,,,,,,,,,2025-04-01_21h50.12.280,,2025-04-01_21h50.29.362,,,,67ec97c94fdeb4da1eff7fd3,,,,,,,,,,,,,0,,,67ea50cb1cc5e59473a47d51,,,,,NoisyChannelLearning,,,,,,,,001,,,,,,,,,59.88023952095548,,PARTICIPANT,,f,,,,,,,,506.34400000000005,,,,,NoisyChannelLearning_PilotExp2,,,
﻿,67ec910001675b3ed2ca68d9,,crafts,515.980700000003,,,,,,,,,,509.41170000000295,"[""space"",""space"",""space"",""space"",""space"",""space"",""space"",""space"",""space"",""space"",""space"",""space"",""space""]",,,0.4952497357,2023.2.1,,,,"[null,null,null,null,null,null,null,null,null,null,null,null,null]",,,,,,,,arts and crafts,,,,,alphabetical,,,,Arts and crafts are a wonderful way to express creativity through handmade projects.,,+ Lilly enjoys doing crafts and arts to relax when she is stressed.,17,,,,,,,,,,Win32,,,0.6080373752,Does Lilly enjoy run when she's stressed?,,,,,,,,0.3324999999999818,0.29950000000008004,,,,,,17,,67ea50cb1cc5e59473a47d51,,,,4,,1,,,,,moving word,,,,,,0.3321000000089498,2.2327999999970416,,001,0.2993999999911239,,,508.411099999994,,,,0.3493000000119082,0.4162000000029593,,arts,,,0.2659999999999627,,frequent,,,,515.980700000003,,,0.4162000000029593,n,,,,,0,,2,2025-04-01_21h50.12.280,,2025-04-01_21h50.29.362,,0.28109999999401225,,67ec97c94fdeb4da1eff7fd3,,not-frequent,,,audio/prime_alpha/Arts_and_crafts_are_a_wonderful_way_to_express_creativity_through_handmade_projects.wav,,0.3661000000089416,,0.3994999999999891,4.097200000002886,,,,520.098799999997,,67ea50cb1cc5e59473a47d51,,,y,,NoisyChannelLearning,,,,,,,509.4115999999941,001,,,2,,0.3662000000030048,,Sentence (nonalphabetical),,59.88023952095548,0,PARTICIPANT,,,,,,17,,"[2.2128999999910093,2.513099999994097,2.896399999991104,3.1872999999969807,3.4988999999910675,3.8542999999970107,4.218099999994024,4.563799999997059,4.88250000000005,5.322499999999991,5.751199999988103,6.135099999994054,6.551899999991065]",,,,,,,NoisyChannelLearning_PilotExp2,,,
﻿,67ec910001675b3ed2ca68d9,,,,,j,,,0,F.png,521.516,,,,,0.8115999999940868,522.016099999994,,2023.2.1,520.099200000003,,520.4155000000001,,,,,,1,,,,0,0,,F.png,,,,520.665700000003,,,,,,,,,,,,f,0,Win32,n,,,,,,,,,,520.665599999994,,,,,,,,,,67ea50cb1cc5e59473a47d51,,,,,,,j,,,,moving word,,,,0,,,,1,001,,521.515900000006,0,,,,,,,,,,,,,,,,,,,,,,,,,,,,,2025-04-01_21h50.12.280,,2025-04-01_21h50.29.362,,,,67ec97c94fdeb4da1eff7fd3,,,,,,,,,,,,,0,,,67ea50cb1cc5e59473a47d51,,,,,NoisyChannelLearning,0.30750000000000455,,,,,,,001,,,,,,,,,59.88023952095548,,PARTICIPANT,,j,,,return,,,,,520.4175,,,,,NoisyChannelLearning_PilotExp2,,,
﻿,67ec910001675b3ed2ca68d9,,,,,j,,,1,F.png,522.849900000006,,,,,0.5720000000000027,523.35,,2023.2.1,,,,,,,,,1,,,,0,1,,F.png,,,,522.266200000003,,,,,,,,,,,,f,45,Win32,n,,,,,,,,,,522.266200000003,,,,,,,,,,67ea50cb1cc5e59473a47d51,,,,,,,j,,,,moving word,,,,2,,,,1,001,,522.849900000006,45,,,,,,,,,,,,,,,,,,,,,,,,,,,,,2025-04-01_21h50.12.280,,2025-04-01_21h50.29.362,,,,67ec97c94fdeb4da1eff7fd3,,,,,,,,,,,,,0,,,67ea50cb1cc5e59473a47d51,,,,,NoisyChannelLearning,,,,,,,,001,,,,,,,,,59.88023952095548,,PARTICIPANT,,j,,,,,,,,522.016400000006,,,,,NoisyChannelLearning_PilotExp2,,,
﻿,67ec910001675b3ed2ca68d9,,,,,j,,,2,F.png,524.050400000006,,,,,0.4319000000059532,524.5505,,2023.2.1,,,,,,,,,1,,,,0,2,,F.png,,,,523.600200000003,,,,,,,,,,,,f,45,Win32,n,,,,,,,,,,523.6000999999941,,,,,,,,,,67ea50cb1cc5e59473a47d51,,,,,,,j,,,,moving word,,,,10,,,,1,001,,524.050299999997,45,,,,,,,,,,,,,,,,,,,,,,,,,,,,,2025-04-01_21h50.12.280,,2025-04-01_21h50.29.362,,,,67ec97c94fdeb4da1eff7fd3,,,,,,,,,,,,,0,,,67ea50cb1cc5e59473a47d51,,,,,NoisyChannelLearning,,,,,,,,001,,,,,,,,,59.88023952095548,,PARTICIPANT,,j,,,,,,,,523.350400000006,,,,,NoisyChannelLearning_PilotExp2,,,
﻿,67ec910001675b3ed2ca68d9,,,,,f,,,3,F.png,525.650900000006,,,,,0.8101999999880718,526.1510000000001,,2023.2.1,,,,,,,,,1,,,,0,3,,FR.png,,,,524.8005,,,,,,,,,,,,j,0,Win32,y,,,,,,,,,,524.8005,,,,,,,,,,67ea50cb1cc5e59473a47d51,,,,,,,f,,,,moving word,,,,21,,,,1,001,,525.650900000006,0,,,,,,,,,,,,,,,,,,,,,,,,,,,,,2025-04-01_21h50.12.280,,2025-04-01_21h50.29.362,,,,67ec97c94fdeb4da1eff7fd3,,,,,,,,,,,,,0,,,67ea50cb1cc5e59473a47d51,,,,,NoisyChannelLearning,,,,,,,,001,,,,,,,,,59.88023952095548,,PARTICIPANT,,f,,,,,,,,524.550799999997,,,,,NoisyChannelLearning_PilotExp2,,,
﻿,67ec910001675b3ed2ca68d9,,,,,f,,,4,FR.png,527.735,,,,,1.2779000000059568,528.235,,2023.2.1,,,,,,,,,1,,,,0,4,,F.png,,,,526.401200000003,,,,,,,,,,,,j,0,Win32,y,,,,,,,,,,526.401200000003,,,,,,,,,,67ea50cb1cc5e59473a47d51,,,,,,,f,,,,moving word,,,,13,,,,1,001,,527.735,0,,,,,,,,,,,,,,,,,,,,,,,,,,,,,2025-04-01_21h50.12.280,,2025-04-01_21h50.29.362,,,,67ec97c94fdeb4da1eff7fd3,,,,,,,,,,,,,0,,,67ea50cb1cc5e59473a47d51,,,,,NoisyChannelLearning,,,,,,,,001,,,,,,,,,59.88023952095548,,PARTICIPANT,,f,,,,,,,,526.151400000006,,,,,NoisyChannelLearning_PilotExp2,,,
﻿,67ec910001675b3ed2ca68d9,,research,533.2705,,,,,,,,,,529.2355,"[""space"",""space"",""space"",""space"",""space"",""space"",""space"",""space"",""space"",""space"",""space"",""space""]",,,-0.48074983772,2023.2.1,,,,"[null,null,null,null,null,null,null,null,null,null,null,null]",,,,,,,,development and research,,,,,unrelated,,,,His suitcase was packed with essentials and a few souvenirs from his last adventure.,,+ Emily was in research and development but eventually decided to leave.,18,,,,,,,,,,Win32,,,0.2293127498,Did Emily stay in her field?,,,,,,,,0.26629999999704523,0.31589999999107476,,,,,,18,,67ea50cb1cc5e59473a47d51,,,,4,,1,,,,,moving word,,,,,,0.24929999999699248,0.7827999999969961,,001,0.24950000000001182,,,528.2350999999941,,,,0.26610000000903256,0.2488999999910675,,development,,,0.24950000000001182,,unrelated,,,,533.270599999994,,,0.21620000000302753,n,,,,,0,,6,2025-04-01_21h50.12.280,,2025-04-01_21h50.29.362,,0.3830000000000382,,67ec97c94fdeb4da1eff7fd3,,frequent,,,audio/prime_unrelated/His_suitcase_was_packed_with_essentials_and_a_few_souvenirs_from_his_last_adventure.wav,,0.23280000001193457,,,2.0299999999999727,,,,535.321200000003,,67ea50cb1cc5e59473a47d51,,,n,,NoisyChannelLearning,,,,,,,529.2354000000059,001,,,12,,0.38280000001191183,,Sentence (nonalphabetical),,59.88023952095548,0,PARTICIPANT,,,,,,6,,"[0.7724000000059732,1.163400000005936,1.5637000000029957,1.8396000000088861,2.1659000000059905,2.454100000008907,2.730700000002912,2.9973000000119328,3.26480000001186,3.5083000000119,3.764900000005923,4.014600000008954]",,,,,,,NoisyChannelLearning_PilotExp2,,,
﻿,67ec910001675b3ed2ca68d9,,,,,j,,,0,FR.png,537.772,,,,,1.4697000000030584,538.2720999999941,,2023.2.1,535.3215999999941,,536.021299999997,,,,,,1,,,,0,0,,FR.png,,,,536.271400000006,,,,,,,,,,,,f,0,Win32,n,,,,,,,,,,536.271400000006,,,,,,,,,,67ea50cb1cc5e59473a47d51,,,,,,,j,,,,moving word,,,,28,,,,1,001,,537.771900000006,0,,,,,,,,,,,,,,,,,,,,,,,,,,,,,2025-04-01_21h50.12.280,,2025-04-01_21h50.29.362,,,,67ec97c94fdeb4da1eff7fd3,,,,,,,,,,,,,0,,,67ea50cb1cc5e59473a47d51,,,,,NoisyChannelLearning,0.6841000000090389,,,,,,,001,,,,,,,,,59.88023952095548,,PARTICIPANT,,j,,,return,,,,,536.0230999999941,,,,,NoisyChannelLearning_PilotExp2,,,
﻿,67ec910001675b3ed2ca68d9,,,,,j,,,1,F.png,539.0895,,,,,0.5188999999910493,539.589400000006,,2023.2.1,,,,,,,,,1,,,,0,1,,F.png,,,,538.522299999997,,,,,,,,,,,,f,0,Win32,n,,,,,,,,,,538.522299999997,,,,,,,,,,67ea50cb1cc5e59473a47d51,,,,,,,j,,,,moving word,,,,4,,,,1,001,,539.0895,0,,,,,,,,,,,,,,,,,,,,,,,,,,,,,2025-04-01_21h50.12.280,,2025-04-01_21h50.29.362,,,,67ec97c94fdeb4da1eff7fd3,,,,,,,,,,,,,0,,,67ea50cb1cc5e59473a47d51,,,,,NoisyChannelLearning,,,,,,,,001,,,,,,,,,59.88023952095548,,PARTICIPANT,,j,,,,,,,,538.272400000006,,,,,NoisyChannelLearning_PilotExp2,,,
﻿,67ec910001675b3ed2ca68d9,,,,,j,,,2,F.png,540.339700000003,,,,,0.4847000000030448,540.839700000003,,2023.2.1,,,,,,,,,1,,,,0,2,,F.png,,,,539.839400000006,,,,,,,,,,,,f,0,Win32,n,,,,,,,,,,539.839400000006,,,,,,,,,,67ea50cb1cc5e59473a47d51,,,,,,,j,,,,moving word,,,,8,,,,1,001,,540.3395999999941,0,,,,,,,,,,,,,,,,,,,,,,,,,,,,,2025-04-01_21h50.12.280,,2025-04-01_21h50.29.362,,,,67ec97c94fdeb4da1eff7fd3,,,,,,,,,,,,,0,,,67ea50cb1cc5e59473a47d51,,,,,NoisyChannelLearning,,,,,,,,001,,,,,,,,,59.88023952095548,,PARTICIPANT,,j,,,,,,,,539.589700000003,,,,,NoisyChannelLearning_PilotExp2,,,
﻿,67ec910001675b3ed2ca68d9,,,,,f,,,3,FR.png,542.3905,,,,,1.2677999999970098,542.8905,,2023.2.1,,,,,,,,,1,,,,0,3,,F.png,,,,541.089900000006,,,,,,,,,,,,j,45,Win32,y,,,,,,,,,,541.089799999997,,,,,,,,,,67ea50cb1cc5e59473a47d51,,,,,,,f,,,,moving word,,,,7,,,,1,001,,542.3905,45,,,,,,,,,,,,,,,,,,,,,,,,,,,,,2025-04-01_21h50.12.280,,2025-04-01_21h50.29.362,,,,67ec97c94fdeb4da1eff7fd3,,,,,,,,,,,,,0,,,67ea50cb1cc5e59473a47d51,,,,,NoisyChannelLearning,,,,,,,,001,,,,,,,,,59.88023952095548,,PARTICIPANT,,f,,,,,,,,540.840200000003,,,,,NoisyChannelLearning_PilotExp2,,,
﻿,67ec910001675b3ed2ca68d9,,NA,546.9260999999941,,,,,,,,,,543.890900000006,"[""space"",""space"",""space"",""space"",""space"",""space"",""space"",""space"",""space"",""space""]",,,NA,2023.2.1,,,,"[null,null,null,null,null,null,null,null,null,null]",,,,,,,,NA,,,,,filler,,,,"The campfire crackled, casting shadows on their faces.",,"+ She held the fragile seashell, admiring its unique pattern.",19,,,,,,,,,,Win32,,,NA,Was the seashell strong?,,,,,,,,0.26610000000891887,0.2657000000029939,,,,,,19,,67ea50cb1cc5e59473a47d51,,,,0,,1,,,,,moving word,,,,,,0.23249999999995907,0.38239999999109386,,001,0.23259999999402226,,,542.890599999994,,,,0.26610000000903256,,,NA,,,0.23289999999110478,,NA,,,,546.926200000003,,,0.21649999999999636,n,,,,,0,,NA,2025-04-01_21h50.12.280,,2025-04-01_21h50.29.362,,0.5663999999910629,,67ec97c94fdeb4da1eff7fd3,,NA,,,"audio/prime_filler/The_campfire_crackled,_casting_shadows_on_their_faces.wav",,,,,2.6126000000089107,,,,549.559700000003,,67ea50cb1cc5e59473a47d51,,,y,,NoisyChannelLearning,,,,,,,543.8907999999971,001,,,139,,0.21610000000885066,,filler,,59.88023952095548,0,PARTICIPANT,,,,,,59,,"[0.3630999999940059,0.9467999999969834,1.1836999999879936,1.4311999999880527,1.7202999999969961,2.00649999999996,2.2806999999880873,2.5359999999999445,2.783999999999992,3.023499999999899]",,,,,,,NoisyChannelLearning_PilotExp2,,,
﻿,67ec910001675b3ed2ca68d9,,,,,f,,,0,F.png,551.4605999999941,,,,,1.0321000000088816,551.9605999999941,,2023.2.1,549.5600000000001,,550.126599999994,,,,,,1,,,,0,0,,FR.png,,,,550.376700000003,,,,,,,,,,,,j,45,Win32,y,,,,,,,,,,550.376599999994,,,,,,,,,,67ea50cb1cc5e59473a47d51,,,,,,,f,,,,moving word,,,,27,,,,1,001,,551.4605999999941,45,,,,,,,,,,,,,,,,,,,,,,,,,,,,,2025-04-01_21h50.12.280,,2025-04-01_21h50.29.362,,,,67ec97c94fdeb4da1eff7fd3,,,,,,,,,,,,,0,,,67ea50cb1cc5e59473a47d51,,,,,NoisyChannelLearning,0.5534999999999854,,,,,,,001,,,,,,,,,59.88023952095548,,PARTICIPANT,,f,,,return,,,,,550.128299999997,,,,,NoisyChannelLearning_PilotExp2,,,
﻿,67ec910001675b3ed2ca68d9,,,,,j,,,1,FR.png,553.3445,,,,,1.095200000002933,553.8445,,2023.2.1,,,,,,,,,1,,,,0,1,,FR.png,,,,552.210799999997,,,,,,,,,,,,f,0,Win32,n,,,,,,,,,,552.210700000003,,,,,,,,,,67ea50cb1cc5e59473a47d51,,,,,,,j,,,,moving word,,,,24,,,,1,001,,553.3445,0,,,,,,,,,,,,,,,,,,,,,,,,,,,,,2025-04-01_21h50.12.280,,2025-04-01_21h50.29.362,,,,67ec97c94fdeb4da1eff7fd3,,,,,,,,,,,,,0,,,67ea50cb1cc5e59473a47d51,,,,,NoisyChannelLearning,,,,,,,,001,,,,,,,,,59.88023952095548,,PARTICIPANT,,j,,,,,,,,551.960900000006,,,,,NoisyChannelLearning_PilotExp2,,,
﻿,67ec910001675b3ed2ca68d9,,,,,f,,,2,FR.png,555.112,,,,,0.9783999999910975,555.6125000000001,,2023.2.1,,,,,,,,,1,,,,0,2,,F.png,,,,554.094700000003,,,,,,,,,,,,j,45,Win32,y,,,,,,,,,,554.094700000003,,,,,,,,,,67ea50cb1cc5e59473a47d51,,,,,,,f,,,,moving word,,,,11,,,,1,001,,555.111900000006,45,,,,,,,,,,,,,,,,,,,,,,,,,,,,,2025-04-01_21h50.12.280,,2025-04-01_21h50.29.362,,,,67ec97c94fdeb4da1eff7fd3,,,,,,,,,,,,,0,,,67ea50cb1cc5e59473a47d51,,,,,NoisyChannelLearning,,,,,,,,001,,,,,,,,,59.88023952095548,,PARTICIPANT,,f,,,,,,,,553.844799999997,,,,,NoisyChannelLearning_PilotExp2,,,
﻿,67ec910001675b3ed2ca68d9,,,,,j,,,3,F.png,556.845799999997,,,,,0.9480999999940423,557.3459000000059,,2023.2.1,,,,,,,,,1,,,,0,3,,F.png,,,,555.862099999994,,,,,,,,,,,,f,45,Win32,n,,,,,,,,,,555.862,,,,,,,,,,67ea50cb1cc5e59473a47d51,,,,,,,j,,,,moving word,,,,14,,,,1,001,,556.845700000003,45,,,,,,,,,,,,,,,,,,,,,,,,,,,,,2025-04-01_21h50.12.280,,2025-04-01_21h50.29.362,,,,67ec97c94fdeb4da1eff7fd3,,,,,,,,,,,,,0,,,67ea50cb1cc5e59473a47d51,,,,,NoisyChannelLearning,,,,,,,,001,,,,,,,,,59.88023952095548,,PARTICIPANT,,j,,,,,,,,555.612799999997,,,,,NoisyChannelLearning_PilotExp2,,,
﻿,67ec910001675b3ed2ca68d9,,,,,j,,,4,FR.png,559.530200000003,,,,,1.8778999999910866,560.030200000003,,2023.2.1,,,,,,,,,1,,,,0,4,,FR.png,,,,557.596,,,,,,,,,,,,f,45,Win32,n,,,,,,,,,,557.596,,,,,,,,,,67ea50cb1cc5e59473a47d51,,,,,,,j,,,,moving word,,,,18,,,,1,001,,559.530099999994,45,,,,,,,,,,,,,,,,,,,,,,,,,,,,,2025-04-01_21h50.12.280,,2025-04-01_21h50.29.362,,,,67ec97c94fdeb4da1eff7fd3,,,,,,,,,,,,,0,,,67ea50cb1cc5e59473a47d51,,,,,NoisyChannelLearning,,,,,,,,001,,,,,,,,,59.88023952095548,,PARTICIPANT,,j,,,,,,,,557.346200000003,,,,,NoisyChannelLearning_PilotExp2,,,
